aX,aY,aZ,gX,gY,gZ
-0.00570000,-0.00610000,0.10050000,-0.00070000,-0.00273000,0.00028000
-0.00630000,-0.00560000,0.10030000,-0.00035000,-0.00371000,0.00077000
-0.00630000,-0.00560000,0.10030000,-0.00035000,-0.00371000,0.00077000
-0.00600000,-0.00590000,0.09980000,-0.00035000,-0.00385000,0.00091000
-0.00600000,-0.00590000,0.09980000,-0.00035000,-0.00385000,0.00091000
-0.00650000,-0.00560000,0.10040000,-0.00126000,-0.00322000,0.00105000
-0.00650000,-0.00560000,0.10040000,-0.00126000,-0.00322000,0.00105000
-0.00670000,-0.00570000,0.10000000,-0.00140000,-0.00308000,0.00105000
-0.00650000,-0.00610000,0.10050000,-0.00014000,-0.00308000,0.00091000
-0.00670000,-0.00580000,0.10130000,0.00077000,-0.00294000,0.00084000
-0.00710000,-0.00540000,0.10130000,0.00091000,-0.00322000,0.00091000
-0.00700000,-0.00500000,0.10150000,0.00056000,-0.00357000,0.00084000
-0.00660000,-0.00540000,0.10170000,-0.00063000,-0.00385000,0.00084000
-0.00660000,-0.00540000,0.10170000,-0.00063000,-0.00378000,0.00063000
-0.00570000,-0.00610000,0.10140000,-0.00189000,-0.00378000,0.00063000
-0.00550000,-0.00610000,0.10110000,-0.00175000,-0.00336000,0.00056000
-0.00590000,-0.00620000,0.10090000,-0.00014000,-0.00301000,0.00077000
-0.00670000,-0.00560000,0.10100000,0.00119000,-0.00273000,0.00084000
-0.00640000,-0.00510000,0.10050000,0.00175000,-0.00231000,0.00084000
-0.00640000,-0.00510000,0.10050000,0.00203000,-0.00182000,0.00112000
-0.00600000,-0.00520000,0.10080000,0.00203000,-0.00182000,0.00112000
-0.00630000,-0.00600000,0.09870000,0.00266000,-0.00119000,0.00175000
-0.00610000,-0.00580000,0.10030000,0.00476000,-0.00098000,0.00196000
-0.00320000,-0.00740000,0.10570000,0.00616000,-0.00133000,0.00189000
-0.00320000,-0.00740000,0.10570000,0.00616000,-0.00133000,0.00189000
0.00070000,-0.01070000,0.09460000,0.00434000,-0.00224000,0.00301000
0.00280000,-0.00470000,0.06690000,0.01190000,0.00154000,0.00525000
-0.00040000,0.00760000,0.09660000,0.03598000,0.01372000,0.00574000
-0.01410000,-0.00970000,0.15770000,0.03213000,0.03647000,0.01029000
-0.04650000,0.00170000,0.13100000,-0.03836000,0.05761000,0.01428000
-0.04650000,0.00170000,0.13100000,-0.05733000,0.02625000,0.00728000
-0.01190000,0.01160000,0.01530000,-0.05733000,0.02625000,0.00728000
-0.00370000,-0.01440000,0.12810000,0.00889000,-0.03178000,0.00546000
-0.00620000,-0.01580000,0.07320000,0.00287000,-0.00770000,-0.00126000
-0.01550000,-0.00430000,0.09820000,0.00651000,-0.01309000,-0.00168000
-0.01670000,-0.00200000,0.10910000,0.01708000,-0.00490000,0.00084000
-0.01410000,-0.00520000,0.10960000,0.00735000,-0.02114000,-0.00392000
-0.01410000,-0.00520000,0.10960000,0.00735000,-0.02114000,-0.00392000
-0.00940000,-0.00760000,0.11170000,-0.00091000,-0.02415000,-0.00784000
-0.00470000,-0.00580000,0.10170000,-0.00658000,-0.02177000,-0.00833000
-0.00530000,0.00000000,0.09780000,-0.00196000,-0.01680000,-0.00413000
-0.00580000,-0.00450000,0.09840000,0.00119000,-0.01372000,-0.00070000
-0.00120000,-0.00890000,0.09420000,-0.00686000,-0.00917000,-0.00070000
-0.00120000,-0.00890000,0.09420000,-0.00686000,-0.00917000,-0.00070000
-0.00040000,-0.00710000,0.09840000,-0.01120000,-0.00147000,-0.00063000
-0.00780000,-0.00730000,0.10160000,-0.01246000,0.00245000,-0.00056000
-0.01000000,-0.00980000,0.09850000,-0.01204000,-0.00056000,-0.00014000
-0.00360000,-0.01030000,0.09650000,-0.00588000,-0.00196000,-0.00084000
-0.00350000,-0.00870000,0.10140000,0.00406000,-0.00175000,0.00133000
-0.00350000,-0.00870000,0.10140000,0.00406000,-0.00175000,0.00133000
-0.00930000,-0.00400000,0.10580000,0.01050000,-0.00091000,0.00245000
-0.00960000,-0.00060000,0.10440000,0.00980000,-0.00469000,0.00112000
-0.00690000,-0.00130000,0.10200000,0.00665000,-0.00798000,0.00119000
-0.00590000,-0.00320000,0.10010000,0.00168000,-0.00721000,0.00140000
-0.00780000,-0.00520000,0.10150000,-0.00224000,-0.00378000,0.00224000
-0.00780000,-0.00520000,0.10150000,-0.00343000,-0.00168000,0.00210000
-0.00940000,-0.00650000,0.10290000,-0.00343000,-0.00168000,0.00210000
-0.00930000,-0.00610000,0.10230000,-0.00203000,-0.00238000,0.00105000
-0.00820000,-0.00450000,0.10010000,0.00063000,-0.00427000,0.00035000
-0.00720000,-0.00400000,0.10090000,0.00280000,-0.00581000,0.00007000
-0.00570000,-0.00530000,0.10090000,0.00056000,-0.00399000,0.00112000
-0.00700000,-0.00610000,0.10030000,0.00105000,-0.00350000,0.00133000
-0.00650000,-0.00540000,0.10010000,0.00119000,-0.00378000,0.00112000
-0.00650000,-0.00540000,0.10010000,0.00119000,-0.00378000,0.00112000
-0.00540000,-0.00560000,0.10110000,0.00140000,-0.00406000,0.00091000
-0.00520000,-0.00640000,0.10140000,0.00098000,-0.00371000,0.00140000
-0.00520000,-0.00640000,0.10140000,0.00098000,-0.00371000,0.00140000
-0.00730000,-0.00580000,0.10100000,0.00133000,-0.00294000,0.00168000
-0.00730000,-0.00580000,0.10100000,0.00224000,-0.00392000,0.00133000
-0.00730000,-0.00560000,0.10110000,0.00224000,-0.00392000,0.00133000
-0.00710000,-0.00530000,0.10210000,0.00203000,-0.00462000,0.00112000
-0.00680000,-0.00470000,0.10130000,0.00028000,-0.00490000,0.00091000
-0.00610000,-0.00510000,0.10050000,-0.00077000,-0.00504000,0.00049000
-0.00500000,-0.00580000,0.09970000,-0.00063000,-0.00504000,0.00035000
-0.00340000,-0.00690000,0.10090000,0.00084000,-0.00420000,0.00084000
-0.00340000,-0.00690000,0.10090000,0.00084000,-0.00420000,0.00084000
0.00000000,-0.00710000,0.10370000,0.00168000,-0.00301000,0.00210000
0.00270000,-0.00280000,0.08640000,0.00455000,-0.00301000,0.00455000
0.00010000,-0.00100000,0.09420000,0.01666000,-0.00042000,0.00735000
-0.00550000,-0.00320000,0.09970000,0.01519000,0.00525000,0.00518000
-0.01830000,-0.01260000,0.13940000,0.00168000,0.02156000,0.00329000
-0.01830000,-0.01260000,0.13940000,0.00168000,0.02156000,0.00329000
-0.03410000,0.00230000,0.12680000,-0.04823000,0.04725000,-0.00056000
-0.00860000,0.00740000,0.03480000,-0.05397000,0.02142000,-0.00196000
0.00120000,-0.02070000,0.10740000,0.00315000,-0.02016000,0.00224000
-0.00130000,-0.01560000,0.07410000,0.00903000,-0.00553000,0.00091000
-0.01390000,-0.00190000,0.09390000,0.02317000,0.00994000,0.00469000
-0.01390000,-0.00190000,0.09390000,0.02373000,0.00189000,0.00441000
-0.01860000,0.00050000,0.10800000,0.02373000,0.00189000,0.00441000
-0.01430000,-0.00690000,0.11490000,0.01099000,-0.00812000,-0.00231000
-0.00730000,-0.00890000,0.10480000,0.00098000,-0.01246000,-0.00462000
-0.00760000,-0.00900000,0.11000000,0.00161000,-0.01540000,-0.00063000
-0.01190000,-0.00750000,0.10770000,0.00665000,-0.01645000,0.00385000
-0.01190000,-0.00750000,0.10770000,0.00665000,-0.01645000,0.00385000
-0.00980000,-0.00460000,0.09890000,0.01050000,-0.01890000,0.00000000
-0.00630000,-0.00320000,0.10990000,0.01428000,-0.01715000,-0.00119000
-0.00660000,-0.00580000,0.10150000,0.00623000,-0.01596000,0.00091000
-0.00070000,-0.00730000,0.09850000,-0.00245000,-0.01470000,-0.00063000
0.00250000,-0.00270000,0.09060000,-0.00140000,-0.00854000,-0.00070000
0.00250000,-0.00270000,0.09060000,-0.00140000,-0.00854000,-0.00070000
-0.00300000,-0.00420000,0.09930000,0.00616000,-0.00364000,0.00210000
-0.00790000,-0.00410000,0.10180000,0.00399000,-0.00140000,0.00217000
-0.00630000,-0.00280000,0.10310000,-0.00217000,-0.00147000,0.00098000
-0.00410000,-0.00490000,0.09910000,-0.00462000,-0.00266000,0.00119000
-0.00510000,-0.00670000,0.09850000,-0.00238000,-0.00154000,0.00182000
-0.00510000,-0.00670000,0.09850000,0.00042000,0.00042000,0.00252000
-0.00820000,-0.00390000,0.10170000,0.00042000,0.00042000,0.00252000
-0.00830000,-0.00330000,0.10180000,0.00161000,-0.00210000,0.00168000
-0.00720000,-0.00450000,0.10280000,0.00133000,-0.00371000,0.00126000
-0.00710000,-0.00430000,0.10140000,-0.00252000,-0.00378000,0.00049000
-0.00780000,-0.00320000,0.10130000,-0.00553000,-0.00280000,-0.00049000
-0.00770000,-0.00370000,0.10280000,-0.00560000,-0.00280000,-0.00049000
-0.00770000,-0.00370000,0.10280000,-0.00560000,-0.00280000,-0.00049000
-0.00690000,-0.00460000,0.10480000,-0.00602000,-0.00434000,-0.00091000
-0.00640000,-0.00490000,0.10360000,-0.00714000,-0.00539000,-0.00126000
-0.00650000,-0.00520000,0.10110000,-0.00665000,-0.00630000,-0.00133000
-0.00570000,-0.00400000,0.10000000,-0.00385000,-0.00588000,-0.00140000
-0.00440000,-0.00290000,0.09810000,-0.00056000,-0.00476000,-0.00091000
-0.00440000,-0.00330000,0.10190000,0.00175000,-0.00336000,0.00028000
-0.00510000,-0.00330000,0.10190000,0.00175000,-0.00336000,0.00028000
-0.00670000,-0.00500000,0.10080000,0.00133000,-0.00357000,0.00077000
-0.00670000,-0.00500000,0.10080000,0.00133000,-0.00357000,0.00077000
-0.00610000,-0.00550000,0.10180000,0.00077000,-0.00378000,0.00070000
-0.00610000,-0.00550000,0.10180000,0.00077000,-0.00378000,0.00070000
-0.00540000,-0.00580000,0.10140000,-0.00049000,-0.00322000,0.00063000
-0.00540000,-0.00600000,0.10110000,-0.00056000,-0.00273000,0.00084000
-0.00540000,-0.00600000,0.10110000,-0.00056000,-0.00273000,0.00084000
-0.00650000,-0.00520000,0.10080000,0.00028000,-0.00252000,0.00098000
-0.00690000,-0.00550000,0.10060000,0.00112000,-0.00294000,0.00070000
-0.00690000,-0.00550000,0.10060000,0.00112000,-0.00294000,0.00070000
-0.00630000,-0.00530000,0.10120000,0.00112000,-0.00329000,0.00056000
-0.00570000,-0.00460000,0.10100000,0.00056000,-0.00322000,0.00063000
-0.00630000,-0.00470000,0.10010000,0.00028000,-0.00350000,0.00077000
-0.00660000,-0.00530000,0.10040000,0.00014000,-0.00378000,0.00042000
-0.00660000,-0.00530000,0.10040000,0.00014000,-0.00378000,0.00042000
-0.00510000,-0.00590000,0.10050000,-0.00021000,-0.00357000,-0.00014000
-0.00390000,-0.00540000,0.10080000,0.00084000,-0.00266000,0.00007000
-0.00510000,-0.00540000,0.10140000,0.00280000,-0.00245000,0.00084000
-0.00660000,-0.00610000,0.10090000,0.00301000,-0.00301000,0.00133000
-0.00550000,-0.00640000,0.10250000,0.00182000,-0.00273000,0.00126000
-0.00550000,-0.00640000,0.10250000,0.00182000,-0.00273000,0.00126000
-0.00210000,-0.00730000,0.10390000,0.00007000,-0.00245000,0.00126000
0.00010000,-0.00510000,0.09620000,0.00091000,-0.00420000,0.00182000
-0.00090000,-0.00140000,0.10480000,0.00616000,-0.00497000,0.00280000
-0.00300000,-0.00210000,0.08770000,0.00532000,-0.00119000,0.00028000
-0.00290000,-0.01130000,0.07450000,0.01036000,0.00882000,0.00378000
-0.00290000,-0.01130000,0.07450000,0.01036000,0.03633000,0.00980000
-0.03230000,-0.01260000,0.17680000,0.00917000,0.03633000,0.00980000
-0.02350000,0.02000000,0.07560000,-0.04907000,0.05306000,0.00014000
-0.01050000,-0.00660000,0.06070000,-0.02415000,-0.00406000,0.00210000
0.00620000,-0.01540000,0.08570000,0.01008000,-0.04417000,-0.00595000
0.00100000,-0.01130000,0.08800000,0.02030000,0.00119000,-0.00189000
0.00100000,-0.01130000,0.08800000,0.01995000,0.01386000,0.00644000
-0.01920000,0.00160000,0.10730000,0.01995000,0.01386000,0.00644000
-0.02340000,-0.00520000,0.11440000,0.01106000,-0.00357000,0.00175000
-0.01090000,-0.01010000,0.10760000,0.00147000,-0.01848000,-0.00602000
-0.00220000,-0.01170000,0.11370000,-0.00175000,-0.01939000,-0.00567000
-0.00700000,-0.01170000,0.10440000,-0.00329000,-0.01540000,-0.00189000
-0.00990000,-0.00810000,0.10030000,0.00427000,-0.01386000,-0.00063000
-0.00990000,-0.00810000,0.10030000,0.00427000,-0.01386000,-0.00063000
0.00000000,-0.00740000,0.09160000,0.01148000,-0.01351000,-0.00147000
0.00490000,-0.00150000,0.09900000,0.01323000,-0.00994000,0.00056000
0.00000000,-0.00060000,0.09760000,0.01008000,-0.00483000,0.00280000
0.00000000,-0.00060000,0.09760000,0.00616000,-0.00420000,0.00175000
-0.00480000,-0.00150000,0.10130000,0.00315000,-0.00322000,0.00273000
-0.00730000,0.00010000,0.09900000,0.00315000,-0.00322000,0.00273000
-0.00550000,-0.00350000,0.09980000,0.00266000,-0.00392000,0.00238000
-0.00600000,-0.00330000,0.10130000,0.00028000,-0.00224000,0.00252000
-0.00570000,-0.00110000,0.09800000,0.00000000,-0.00203000,0.00259000
-0.00590000,-0.00330000,0.10040000,0.00420000,-0.00231000,0.00280000
-0.00830000,-0.00410000,0.10260000,0.00525000,-0.00147000,0.00315000
-0.00830000,-0.00410000,0.10260000,0.00525000,-0.00147000,0.00315000
-0.00980000,-0.00430000,0.10610000,0.00273000,-0.00021000,0.00182000
-0.00870000,-0.00200000,0.10470000,-0.00091000,-0.00147000,-0.00014000
-0.00670000,-0.00150000,0.10300000,-0.00042000,-0.00434000,-0.00056000
-0.00640000,-0.00180000,0.10450000,-0.00077000,-0.00581000,-0.00042000
-0.00670000,-0.00310000,0.10280000,-0.00546000,-0.00567000,-0.00077000
-0.00670000,-0.00310000,0.10280000,-0.00749000,-0.00504000,-0.00049000
-0.00630000,-0.00400000,0.09970000,-0.00749000,-0.00504000,-0.00049000
-0.00630000,-0.00320000,0.10130000,-0.00420000,-0.00497000,-0.00077000
-0.00550000,-0.00460000,0.10050000,0.00056000,-0.00329000,0.00154000
-0.00480000,-0.00370000,0.10150000,0.00035000,-0.00245000,0.00035000
-0.00480000,-0.00370000,0.10150000,0.00035000,-0.00245000,0.00035000
-0.00480000,-0.00370000,0.10150000,0.00070000,-0.00245000,0.00049000
-0.00510000,-0.00410000,0.10240000,0.00070000,-0.00245000,0.00049000
-0.00550000,-0.00400000,0.10170000,0.00028000,-0.00252000,0.00042000
-0.00550000,-0.00400000,0.10170000,0.00028000,-0.00252000,0.00042000
-0.00510000,-0.00360000,0.10150000,0.00014000,-0.00273000,0.00042000
-0.00510000,-0.00360000,0.10150000,0.00014000,-0.00273000,0.00042000
-0.00510000,-0.00340000,0.10110000,0.00000000,-0.00301000,0.00042000
-0.00520000,-0.00370000,0.10210000,-0.00042000,-0.00322000,0.00070000
-0.00580000,-0.00340000,0.10160000,-0.00091000,-0.00336000,0.00105000
-0.00570000,-0.00330000,0.10080000,-0.00021000,-0.00406000,0.00119000
-0.00570000,-0.00330000,0.10080000,-0.00021000,-0.00406000,0.00119000
-0.00500000,-0.00340000,0.10090000,0.00091000,-0.00511000,0.00140000
-0.00390000,-0.00420000,0.10260000,0.00091000,-0.00525000,0.00119000
-0.00440000,-0.00540000,0.10210000,-0.00070000,-0.00462000,0.00140000
-0.00450000,-0.00490000,0.10100000,-0.00056000,-0.00385000,0.00147000
-0.00380000,-0.00370000,0.10070000,0.00224000,-0.00315000,0.00175000
-0.00380000,-0.00370000,0.10070000,0.00322000,-0.00217000,0.00217000
-0.00400000,-0.00390000,0.10420000,0.00322000,-0.00217000,0.00217000
-0.00180000,-0.00460000,0.10440000,-0.00105000,-0.00119000,0.00063000
0.00140000,-0.00160000,0.09780000,-0.00042000,0.00133000,-0.00070000
0.00060000,0.00660000,0.08620000,-0.00042000,0.00133000,-0.00070000
-0.00070000,-0.01120000,0.08390000,0.01036000,0.00637000,0.00392000
-0.02250000,-0.01680000,0.13590000,0.00833000,0.03255000,0.01316000
-0.02730000,0.01990000,0.11950000,-0.02807000,0.06510000,0.00805000
-0.01490000,0.00340000,0.06650000,-0.03045000,0.01519000,0.00469000
-0.01490000,0.00340000,0.09810000,0.00056000,-0.02681000,-0.00294000
-0.00580000,-0.01950000,0.09810000,0.00056000,-0.02681000,-0.00294000
-0.00670000,-0.01950000,0.08690000,0.00329000,0.00182000,-0.00644000
-0.01440000,-0.00130000,0.09230000,0.00483000,-0.00119000,-0.00119000
-0.01160000,0.00000000,0.10060000,0.01169000,-0.01043000,-0.00035000
-0.00700000,-0.00610000,0.11340000,0.01316000,-0.00952000,-0.00126000
-0.00810000,-0.00470000,0.11010000,0.00511000,-0.01288000,0.00112000
-0.00810000,-0.00470000,0.11010000,0.00511000,-0.01288000,0.00112000
-0.01030000,-0.00610000,0.10960000,-0.00014000,-0.01526000,0.00196000
-0.01180000,-0.00810000,0.10850000,-0.00175000,-0.02233000,0.00035000
-0.00720000,-0.00320000,0.09790000,0.00287000,-0.01904000,-0.00203000
-0.00530000,-0.00730000,0.10840000,0.00616000,-0.01253000,-0.00175000
-0.00210000,-0.00870000,0.09970000,-0.00469000,-0.01316000,-0.00112000
-0.00210000,-0.00870000,0.09970000,-0.00469000,-0.01316000,0.00091000
0.00170000,-0.00560000,0.09890000,-0.00798000,-0.00889000,0.00091000
0.00140000,-0.00740000,0.09800000,-0.00581000,-0.00819000,0.00105000
-0.00390000,-0.00760000,0.09410000,-0.00133000,-0.00399000,0.00119000
-0.00940000,-0.00490000,0.10010000,0.00217000,-0.00154000,0.00259000
-0.00880000,-0.00330000,0.10160000,0.00028000,-0.00231000,0.00105000
-0.00880000,-0.00330000,0.10160000,0.00028000,-0.00231000,-0.00112000
-0.00430000,-0.00380000,0.09860000,-0.00217000,-0.00476000,-0.00112000
-0.00360000,-0.00600000,0.09980000,-0.00042000,-0.00406000,0.00014000
-0.00720000,-0.00420000,0.10120000,0.00182000,-0.00161000,0.00063000
-0.00840000,-0.00260000,0.10180000,0.00287000,-0.00147000,-0.00259000
-0.00650000,-0.00060000,0.10320000,0.00280000,-0.00336000,-0.00392000
-0.00650000,-0.00060000,0.10320000,0.00091000,-0.00427000,0.00021000
-0.00640000,-0.00130000,0.10310000,0.00091000,-0.00427000,0.00021000
-0.00550000,-0.00380000,0.10100000,-0.00280000,-0.00413000,0.00028000
-0.00710000,-0.00310000,0.10290000,-0.00420000,-0.00224000,0.00000000
-0.00800000,-0.00400000,0.10430000,-0.00392000,-0.00343000,0.00007000
-0.00680000,-0.00440000,0.10450000,-0.00315000,-0.00581000,-0.00056000
-0.00680000,-0.00440000,0.10450000,-0.00315000,-0.00679000,-0.00070000
-0.00580000,-0.00570000,0.09990000,-0.00042000,-0.00315000,0.00070000
-0.00540000,-0.00600000,0.10130000,-0.00028000,-0.00357000,0.00091000
-0.00520000,-0.00500000,0.10120000,0.00000000,-0.00294000,0.00091000
-0.00540000,-0.00530000,0.10190000,0.00049000,-0.00280000,0.00077000
-0.00540000,-0.00530000,0.10190000,0.00049000,-0.00280000,0.00077000
-0.00550000,-0.00600000,0.10170000,0.00007000,-0.00287000,0.00063000
-0.00490000,-0.00510000,0.10190000,-0.00007000,-0.00287000,0.00042000
-0.00490000,-0.00510000,0.10190000,-0.00007000,-0.00287000,0.00042000
-0.00560000,-0.00540000,0.10200000,0.00112000,-0.00294000,0.00063000
-0.00660000,-0.00540000,0.10140000,0.00161000,-0.00336000,0.00077000
-0.00600000,-0.00430000,0.10040000,0.00091000,-0.00357000,0.00028000
-0.00520000,-0.00430000,0.10150000,0.00014000,-0.00378000,0.00014000
-0.00480000,-0.00520000,0.10060000,-0.00084000,-0.00371000,0.00028000
-0.00480000,-0.00520000,0.10060000,-0.00084000,-0.00371000,0.00028000
-0.00420000,-0.00580000,0.10070000,-0.00021000,-0.00371000,0.00042000
-0.00460000,-0.00690000,0.10110000,0.00119000,-0.00357000,0.00063000
-0.00490000,-0.00590000,0.10050000,0.00196000,-0.00329000,0.00077000
-0.00390000,-0.00520000,0.10140000,0.00273000,-0.00336000,0.00098000
-0.00400000,-0.00620000,0.10310000,0.00196000,-0.00357000,0.00175000
-0.00400000,-0.00620000,0.10310000,-0.00028000,-0.00280000,0.00217000
-0.00590000,-0.00590000,0.10330000,-0.00028000,-0.00280000,0.00217000
-0.00540000,-0.00580000,0.10040000,-0.00112000,-0.00378000,0.00161000
-0.00230000,-0.00640000,0.10300000,0.00070000,-0.00469000,0.00126000
0.00140000,-0.00470000,0.09850000,0.00147000,-0.00546000,0.00196000
0.00160000,-0.00040000,0.10100000,0.00427000,-0.00553000,0.00301000
0.00180000,0.00410000,0.08630000,0.00448000,-0.00084000,0.00210000
0.00180000,0.00410000,0.08630000,0.00448000,-0.00084000,0.00210000
0.00430000,-0.00880000,0.06560000,0.01323000,0.01463000,0.00840000
-0.03390000,-0.01720000,0.17770000,0.01386000,0.04564000,0.02079000
-0.03380000,0.01690000,0.06650000,-0.06216000,0.06083000,0.00518000
-0.01790000,-0.01120000,0.06660000,-0.03332000,-0.00217000,-0.00427000
0.00060000,-0.02070000,0.10270000,0.00441000,-0.03983000,-0.01169000
0.00060000,-0.02070000,0.10270000,0.00441000,-0.03983000,-0.01169000
0.00270000,-0.01480000,0.07450000,0.00798000,0.00056000,-0.00861000
-0.01230000,0.00130000,0.10660000,0.01610000,-0.00070000,0.00161000
-0.01630000,-0.00450000,0.10580000,0.01533000,-0.00399000,0.00273000
-0.01060000,-0.00800000,0.11190000,0.00539000,-0.01869000,0.00035000
-0.01060000,-0.00800000,0.11190000,0.00133000,-0.01743000,-0.00273000
-0.00480000,-0.00610000,0.10320000,0.00133000,-0.01743000,-0.00273000
-0.00730000,-0.01040000,0.11370000,0.00210000,-0.02079000,-0.00371000
-0.01210000,-0.01090000,0.10910000,0.00091000,-0.01904000,-0.00224000
-0.00920000,-0.00890000,0.09770000,0.00245000,-0.01729000,-0.00266000
0.00600000,-0.00660000,0.08650000,0.00455000,-0.01848000,-0.00420000
0.00600000,-0.00660000,0.08650000,0.01253000,-0.00910000,0.00112000
0.01300000,-0.00160000,0.09070000,0.01253000,-0.00910000,0.00112000
0.00280000,-0.00300000,0.10400000,0.01330000,-0.00231000,0.00511000
-0.01040000,-0.00350000,0.10410000,0.00546000,0.00119000,0.00441000
-0.01240000,-0.00580000,0.10250000,-0.00126000,-0.00217000,0.00392000
-0.00350000,-0.00550000,0.09650000,-0.00294000,-0.00553000,-0.00014000
-0.00030000,-0.00340000,0.09610000,0.00301000,-0.00315000,-0.00056000
-0.00030000,-0.00340000,0.09610000,0.00301000,-0.00315000,-0.00056000
-0.00500000,-0.00260000,0.10360000,0.00791000,0.00035000,0.00259000
-0.00960000,-0.00200000,0.10900000,0.00371000,0.00070000,0.00238000
-0.00940000,-0.00420000,0.10550000,-0.00462000,-0.00210000,-0.00161000
-0.00440000,-0.00700000,0.09960000,-0.00777000,-0.00532000,-0.00329000
-0.00410000,-0.00520000,0.09900000,-0.00294000,-0.00434000,0.00056000
-0.00410000,-0.00520000,0.09900000,-0.00294000,-0.00434000,-0.00126000
-0.00380000,-0.00220000,0.10110000,0.00091000,-0.00315000,-0.00126000
-0.00650000,-0.00170000,0.10510000,0.00161000,-0.00217000,-0.00021000
-0.00750000,-0.00470000,0.10480000,-0.00245000,-0.00301000,0.00021000
-0.00480000,-0.00550000,0.10170000,0.00161000,-0.00364000,0.00119000
-0.00420000,-0.00490000,0.10140000,0.00126000,-0.00308000,0.00119000
-0.00530000,-0.00510000,0.10150000,0.00189000,-0.00336000,0.00147000
-0.00530000,-0.00510000,0.10150000,0.00189000,-0.00336000,0.00147000
-0.00480000,-0.00450000,0.10140000,0.00098000,-0.00273000,0.00112000
-0.00370000,-0.00470000,0.10240000,-0.00049000,-0.00301000,0.00070000
-0.00370000,-0.00470000,0.10240000,-0.00049000,-0.00301000,0.00070000
-0.00460000,-0.00550000,0.10200000,-0.00112000,-0.00266000,0.00105000
-0.00610000,-0.00500000,0.10110000,-0.00042000,-0.00294000,0.00077000
-0.00560000,-0.00460000,0.10130000,0.00084000,-0.00420000,0.00014000
-0.00390000,-0.00390000,0.10240000,0.00049000,-0.00448000,0.00000000
-0.00350000,-0.00380000,0.10120000,-0.00119000,-0.00392000,0.00014000
-0.00470000,-0.00520000,0.10120000,-0.00161000,-0.00322000,0.00049000
-0.00470000,-0.00520000,0.10120000,-0.00161000,-0.00322000,0.00049000
-0.00440000,-0.00480000,0.10030000,-0.00063000,-0.00315000,0.00014000
-0.00310000,-0.00450000,0.10060000,0.00182000,-0.00371000,-0.00021000
-0.00310000,-0.00450000,0.10250000,0.00280000,-0.00350000,0.00042000
-0.00430000,-0.00500000,0.10240000,0.00056000,-0.00273000,0.00126000
-0.00410000,-0.00570000,0.10240000,-0.00154000,-0.00224000,0.00147000
-0.00410000,-0.00570000,0.10240000,-0.00175000,-0.00287000,0.00147000
-0.00280000,-0.00520000,0.09880000,-0.00175000,-0.00287000,0.00147000
-0.00390000,-0.00470000,0.09760000,0.00196000,-0.00266000,0.00189000
-0.00440000,-0.00600000,0.10050000,0.00504000,-0.00161000,0.00238000
-0.00210000,-0.00630000,0.10300000,0.00413000,0.00084000,0.00294000
-0.00100000,-0.00290000,0.10390000,0.00273000,0.00119000,0.00406000
-0.00160000,-0.00140000,0.10420000,0.00161000,-0.00350000,0.00308000
-0.00160000,-0.00140000,0.10420000,0.00161000,-0.00350000,0.00308000
0.00260000,-0.00250000,0.08690000,0.00126000,-0.00364000,-0.00007000
0.00600000,-0.00170000,0.06760000,0.01225000,0.00546000,0.00504000
-0.01300000,-0.00400000,0.14340000,0.03094000,0.03381000,0.01582000
-0.03830000,0.01660000,0.14070000,-0.00805000,0.07035000,0.01316000
-0.02470000,-0.00380000,0.06450000,-0.03843000,0.02177000,-0.00105000
-0.02470000,-0.00380000,0.06450000,-0.01477000,-0.02975000,-0.01344000
-0.00390000,-0.02000000,0.08670000,-0.01477000,-0.02975000,-0.01344000
0.00210000,-0.02060000,0.09980000,-0.00483000,-0.00693000,-0.01085000
-0.00940000,-0.00410000,0.07740000,0.00273000,0.01834000,0.00063000
-0.01880000,-0.00130000,0.11650000,0.01701000,0.00133000,0.00049000
-0.01070000,-0.00560000,0.10130000,0.00924000,-0.00994000,-0.00574000
-0.00520000,-0.00690000,0.11290000,0.00035000,-0.02310000,-0.00245000
-0.00600000,-0.00530000,0.10460000,-0.00924000,-0.02107000,0.00651000
-0.00780000,-0.00770000,0.10250000,-0.01232000,-0.02730000,0.00700000
-0.00780000,-0.00770000,0.10250000,-0.01232000,-0.02730000,0.00700000
-0.00500000,-0.00750000,0.10140000,-0.00637000,-0.02380000,0.00343000
-0.00690000,-0.00750000,0.10390000,0.00448000,-0.01603000,0.00308000
-0.00910000,-0.00450000,0.10670000,0.00756000,-0.01603000,0.00259000
-0.00260000,-0.01000000,0.09230000,0.00392000,-0.01470000,0.00063000
0.00380000,-0.00600000,0.09750000,-0.00147000,-0.01127000,-0.00084000
0.00380000,-0.00600000,0.09750000,-0.00147000,-0.01127000,-0.00084000
0.00190000,-0.00620000,0.09520000,-0.00308000,-0.00252000,0.00077000
-0.00410000,-0.00560000,0.09790000,0.00070000,0.00021000,0.00140000
-0.00410000,-0.00560000,0.09790000,0.00392000,0.00378000,0.00287000
-0.00840000,-0.00480000,0.10270000,0.00392000,0.00378000,0.00287000
-0.00650000,-0.00600000,0.10340000,0.00007000,-0.00056000,0.00112000
-0.00330000,-0.00680000,0.09840000,-0.00462000,-0.00273000,-0.00077000
-0.00390000,-0.00310000,0.09720000,-0.00070000,-0.00077000,0.00035000
-0.00620000,-0.00280000,0.10080000,0.00602000,0.00189000,0.00014000
-0.00690000,-0.00200000,0.10260000,0.00658000,0.00203000,-0.00084000
-0.00690000,-0.00200000,0.10260000,0.00343000,-0.00126000,0.00161000
-0.00860000,-0.00070000,0.10840000,0.00343000,-0.00126000,0.00161000
-0.00650000,-0.00360000,0.10610000,-0.00350000,-0.00560000,0.00028000
-0.00400000,-0.00620000,0.10010000,0.00147000,-0.00259000,0.00007000
-0.00420000,-0.00580000,0.10150000,0.00147000,-0.00238000,0.00070000
-0.00420000,-0.00580000,0.10150000,0.00035000,-0.00280000,0.00077000
-0.00450000,-0.00610000,0.10230000,0.00035000,-0.00280000,0.00077000
-0.00410000,-0.00680000,0.10120000,-0.00007000,-0.00315000,0.00098000
-0.00410000,-0.00680000,0.10120000,-0.00007000,-0.00315000,0.00098000
-0.00390000,-0.00620000,0.10040000,0.00070000,-0.00343000,0.00133000
-0.00390000,-0.00620000,0.10040000,0.00070000,-0.00357000,0.00168000
-0.00460000,-0.00510000,0.10210000,0.00182000,-0.00357000,0.00168000
-0.00570000,-0.00530000,0.10200000,0.00091000,-0.00392000,0.00168000
-0.00540000,-0.00640000,0.10160000,-0.00140000,-0.00420000,0.00126000
-0.00500000,-0.00600000,0.10080000,-0.00252000,-0.00427000,0.00105000
-0.00480000,-0.00540000,0.10090000,-0.00126000,-0.00497000,0.00084000
-0.00480000,-0.00540000,0.10090000,-0.00035000,-0.00553000,0.00077000
-0.00430000,-0.00580000,0.10080000,-0.00035000,-0.00553000,0.00077000
-0.00390000,-0.00590000,0.10120000,-0.00098000,-0.00497000,0.00063000
-0.00380000,-0.00630000,0.10060000,-0.00182000,-0.00441000,0.00056000
-0.00350000,-0.00700000,0.10060000,-0.00133000,-0.00392000,0.00091000
-0.00340000,-0.00700000,0.10060000,0.00000000,-0.00336000,0.00119000
-0.00340000,-0.00700000,0.10060000,0.00140000,-0.00322000,0.00140000
-0.00350000,-0.00580000,0.10180000,0.00140000,-0.00322000,0.00140000
-0.00260000,-0.00670000,0.10350000,0.00126000,-0.00343000,0.00147000
0.00010000,-0.00730000,0.10140000,-0.00084000,-0.00350000,0.00182000
0.00140000,-0.00460000,0.09610000,0.00000000,-0.00280000,0.00280000
0.00320000,0.00180000,0.09350000,0.00420000,0.00063000,0.00119000
0.00320000,0.00180000,0.09350000,0.00420000,0.00938000,0.00266000
-0.00610000,-0.01360000,0.08920000,0.01547000,0.02569000,0.01274000
-0.04240000,-0.00460000,0.18150000,-0.00770000,0.04333000,0.01113000
-0.04240000,-0.00460000,0.18150000,-0.06615000,0.03829000,-0.00812000
-0.02240000,0.01890000,0.05580000,-0.06615000,0.03829000,-0.00812000
-0.00130000,-0.01840000,0.07320000,-0.02177000,-0.01099000,-0.00945000
0.00440000,-0.02510000,0.10250000,0.00329000,-0.03150000,-0.00917000
-0.00390000,-0.01420000,0.07710000,0.00497000,0.01400000,-0.00203000
-0.01960000,-0.00200000,0.11020000,0.01085000,0.00574000,0.00329000
-0.01240000,-0.00560000,0.09870000,0.00399000,-0.00931000,-0.00455000
-0.01240000,-0.00560000,0.09870000,0.00399000,-0.00931000,-0.00455000
-0.00300000,-0.01090000,0.11080000,0.00224000,-0.02002000,-0.00490000
-0.00350000,-0.01060000,0.10150000,-0.00161000,-0.01799000,0.00245000
-0.00830000,-0.00820000,0.10010000,0.00448000,-0.01561000,0.00476000
-0.00830000,-0.00530000,0.10380000,0.01603000,-0.01694000,0.00175000
-0.00790000,-0.00570000,0.10500000,0.01918000,-0.01701000,-0.00021000
-0.00790000,-0.00570000,0.10500000,0.01918000,-0.01701000,-0.00021000
-0.00630000,-0.00710000,0.10870000,0.01253000,-0.01456000,-0.00063000
-0.00400000,-0.00840000,0.09920000,0.00133000,-0.01225000,-0.00070000
0.00300000,-0.01020000,0.09550000,-0.00133000,-0.00980000,-0.00175000
0.00350000,-0.00520000,0.09540000,0.00385000,-0.00329000,-0.00049000
-0.00320000,-0.00300000,0.09820000,0.00847000,0.00049000,0.00203000
-0.00320000,-0.00300000,0.09820000,0.00847000,0.00154000,0.00154000
-0.00620000,-0.00290000,0.10100000,0.00658000,0.00154000,0.00154000
-0.00650000,-0.00520000,0.10590000,0.00063000,0.00161000,0.00140000
-0.00480000,-0.00760000,0.10290000,-0.00714000,0.00035000,0.00035000
-0.00360000,-0.00740000,0.10230000,-0.00812000,-0.00196000,0.00000000
-0.00460000,-0.00660000,0.09890000,-0.00133000,-0.00266000,0.00119000
-0.00480000,-0.00500000,0.10010000,0.00553000,-0.00399000,0.00168000
-0.00480000,-0.00500000,0.10010000,0.00553000,-0.00399000,0.00168000
-0.00520000,-0.00470000,0.10280000,0.00602000,-0.00266000,0.00182000
-0.00700000,-0.00490000,0.10310000,0.00119000,-0.00182000,0.00168000
-0.00780000,-0.00420000,0.10430000,-0.00301000,-0.00301000,0.00035000
-0.00520000,-0.00460000,0.10150000,-0.00357000,-0.00518000,-0.00077000
-0.00520000,-0.00460000,0.10150000,-0.00357000,-0.00518000,-0.00077000
-0.00550000,-0.00590000,0.10210000,-0.00084000,-0.00378000,0.00126000
-0.00550000,-0.00600000,0.10020000,-0.00049000,-0.00273000,0.00049000
-0.00530000,-0.00600000,0.10020000,-0.00049000,-0.00273000,0.00049000
-0.00360000,-0.00650000,0.10100000,-0.00007000,-0.00280000,0.00021000
-0.00360000,-0.00650000,0.10100000,-0.00007000,-0.00280000,0.00021000
-0.00360000,-0.00720000,0.10170000,0.00084000,-0.00224000,0.00070000
-0.00530000,-0.00600000,0.10260000,0.00105000,-0.00147000,0.00098000
-0.00530000,-0.00600000,0.10260000,0.00105000,-0.00147000,0.00098000
-0.00570000,-0.00580000,0.10190000,-0.00035000,-0.00364000,0.00042000
-0.00410000,-0.00610000,0.10160000,-0.00035000,-0.00364000,0.00042000
-0.00390000,-0.00600000,0.10130000,-0.00112000,-0.00371000,0.00070000
-0.00490000,-0.00530000,0.10060000,-0.00133000,-0.00357000,0.00084000
-0.00500000,-0.00540000,0.10050000,-0.00098000,-0.00399000,0.00063000
-0.00340000,-0.00570000,0.10100000,-0.00077000,-0.00364000,0.00042000
-0.00340000,-0.00570000,0.10320000,-0.00070000,-0.00259000,0.00098000
-0.00130000,-0.00710000,0.10320000,-0.00070000,-0.00259000,0.00098000
-0.00370000,-0.00660000,0.10240000,-0.00091000,-0.00203000,0.00224000
-0.00640000,-0.00660000,0.09980000,0.00014000,-0.00259000,0.00238000
-0.00470000,-0.00680000,0.09970000,0.00182000,-0.00371000,0.00161000
-0.00200000,-0.00490000,0.10410000,0.00147000,-0.00350000,0.00112000
-0.00200000,-0.00490000,0.10610000,-0.00217000,-0.00056000,-0.00126000
-0.00320000,-0.00370000,0.10610000,-0.00217000,-0.00056000,-0.00126000
-0.00070000,-0.00190000,0.09870000,-0.00707000,0.00028000,-0.00343000
0.00280000,-0.00130000,0.07380000,-0.00336000,0.00259000,0.00217000
-0.00730000,-0.01810000,0.10640000,0.01400000,0.01512000,0.01057000
-0.03590000,-0.00370000,0.15930000,-0.00945000,0.04676000,0.00791000
-0.03590000,-0.00370000,0.15930000,-0.04627000,0.03731000,-0.00511000
-0.01920000,0.01020000,0.07930000,-0.04627000,0.03731000,-0.00511000
-0.00210000,-0.01170000,0.07710000,-0.02261000,-0.01785000,-0.01029000
0.00360000,-0.02450000,0.09730000,0.00392000,-0.01911000,-0.01134000
-0.00780000,-0.01760000,0.08530000,0.00602000,0.01512000,-0.00189000
-0.01920000,-0.00470000,0.10810000,0.00287000,0.00399000,0.00028000
-0.01150000,-0.00520000,0.10590000,-0.00322000,-0.00672000,-0.00574000
-0.01150000,-0.00520000,0.10590000,-0.00322000,-0.00672000,-0.00574000
-0.00340000,-0.01120000,0.10600000,-0.00693000,-0.02086000,-0.00413000
-0.00080000,-0.01150000,0.09840000,-0.00924000,-0.02457000,0.00168000
-0.00390000,-0.00860000,0.09670000,-0.00413000,-0.02093000,0.00560000
-0.00390000,-0.00860000,0.09670000,-0.00413000,-0.02093000,0.00560000
-0.00920000,-0.01070000,0.10470000,0.00847000,-0.01715000,0.00483000
-0.01040000,-0.00860000,0.10790000,0.01575000,-0.01491000,0.00252000
-0.00990000,-0.00980000,0.11450000,0.01505000,-0.01708000,0.00147000
-0.00530000,-0.01250000,0.09630000,0.00525000,-0.01974000,0.00021000
0.00800000,-0.00890000,0.08630000,0.00385000,-0.01568000,-0.00182000
0.00800000,-0.00890000,0.08630000,0.00385000,-0.01568000,0.00014000
0.01100000,-0.00270000,0.08850000,0.01400000,-0.00504000,0.00014000
-0.00120000,-0.00460000,0.10270000,0.01813000,0.00224000,0.00399000
-0.01320000,-0.00730000,0.10830000,0.00756000,0.00616000,0.00483000
-0.01160000,-0.00770000,0.10430000,-0.00567000,0.00266000,0.00217000
-0.00120000,-0.00950000,0.09990000,-0.00770000,-0.00350000,-0.00217000
-0.00120000,-0.00950000,0.09990000,0.00189000,-0.00364000,0.00007000
-0.00090000,-0.00600000,0.09580000,0.00189000,-0.00364000,0.00007000
-0.00440000,-0.00400000,0.09710000,0.01211000,-0.00259000,0.00196000
-0.00690000,-0.00440000,0.10350000,0.01225000,-0.00147000,0.00175000
-0.00780000,-0.00600000,0.10630000,0.00224000,0.00000000,-0.00063000
-0.00630000,-0.00730000,0.10130000,-0.00553000,-0.00014000,-0.00175000
-0.00600000,-0.00540000,0.10310000,-0.00217000,-0.00175000,0.00007000
-0.00600000,-0.00540000,0.10310000,-0.00217000,-0.00175000,0.00007000
-0.00400000,-0.00470000,0.10190000,0.00182000,-0.00560000,-0.00133000
-0.00340000,-0.00460000,0.10000000,0.00287000,-0.00553000,-0.00035000
-0.00520000,-0.00440000,0.10350000,0.00112000,-0.00294000,0.00063000
-0.00480000,-0.00540000,0.10110000,0.00196000,-0.00287000,0.00091000
-0.00480000,-0.00530000,0.10110000,0.00126000,-0.00217000,0.00119000
-0.00480000,-0.00520000,0.10120000,0.00231000,-0.00245000,0.00105000
-0.00480000,-0.00520000,0.10120000,0.00231000,-0.00245000,0.00105000
-0.00490000,-0.00570000,0.10170000,0.00224000,-0.00224000,0.00091000
-0.00520000,-0.00570000,0.10330000,0.00091000,-0.00182000,0.00098000
-0.00520000,-0.00570000,0.10330000,0.00091000,-0.00182000,0.00098000
-0.00490000,-0.00540000,0.10300000,-0.00056000,-0.00217000,0.00070000
-0.00460000,-0.00480000,0.10240000,-0.00056000,-0.00315000,0.00056000
-0.00490000,-0.00460000,0.10220000,-0.00007000,-0.00434000,0.00063000
-0.00480000,-0.00520000,0.10110000,-0.00007000,-0.00497000,0.00077000
-0.00480000,-0.00520000,0.10110000,-0.00007000,-0.00497000,0.00077000
-0.00470000,-0.00440000,0.10180000,-0.00021000,-0.00469000,0.00070000
-0.00440000,-0.00480000,0.10200000,-0.00084000,-0.00539000,0.00042000
-0.00340000,-0.00640000,0.10240000,-0.00238000,-0.00588000,0.00056000
-0.00340000,-0.00640000,0.10240000,-0.00427000,-0.00553000,0.00084000
-0.00240000,-0.00640000,0.10030000,-0.00427000,-0.00553000,0.00084000
-0.00200000,-0.00590000,0.09920000,-0.00315000,-0.00441000,0.00042000
-0.00160000,-0.00620000,0.09940000,-0.00021000,-0.00364000,0.00000000
-0.00260000,-0.00570000,0.09850000,0.00301000,-0.00315000,0.00238000
-0.00560000,-0.00450000,0.10400000,0.00490000,-0.00259000,0.00336000
-0.00380000,-0.00540000,0.10410000,0.00091000,-0.00322000,0.00168000
-0.00380000,-0.00540000,0.10410000,-0.00399000,-0.00238000,0.00091000
-0.00120000,-0.00300000,0.09890000,-0.00399000,-0.00238000,0.00091000
0.00150000,-0.00500000,0.08520000,-0.00378000,0.00084000,0.00147000
-0.00680000,-0.01130000,0.10600000,0.00462000,0.01365000,0.00672000
-0.02920000,-0.00470000,0.15080000,-0.01099000,0.03906000,0.00539000
-0.01860000,0.00600000,0.08400000,-0.04284000,0.03647000,-0.00070000
0.00000000,-0.00810000,0.06110000,-0.02443000,-0.00798000,-0.00287000
0.00000000,-0.00810000,0.06110000,-0.02443000,-0.00798000,-0.00287000
0.00190000,-0.01640000,0.10780000,0.00784000,-0.02072000,-0.00287000
-0.00780000,-0.01240000,0.09170000,0.00756000,0.02247000,0.00140000
-0.02280000,-0.00480000,0.09650000,0.00574000,0.01379000,0.00280000
-0.01510000,-0.00890000,0.10150000,0.00392000,-0.00861000,-0.00623000
-0.00350000,-0.00890000,0.10590000,0.00056000,-0.01617000,-0.00777000
-0.00350000,-0.00890000,0.10590000,-0.00189000,-0.01869000,-0.00252000
-0.00330000,-0.00950000,0.10380000,-0.00189000,-0.01869000,-0.00252000
-0.00770000,-0.00960000,0.10530000,0.00056000,-0.01708000,0.00245000
-0.00830000,-0.00930000,0.10580000,0.00595000,-0.01624000,0.00287000
-0.00540000,-0.00770000,0.09630000,0.00868000,-0.02065000,0.00231000
-0.00440000,-0.00620000,0.10530000,0.01449000,-0.01358000,0.00203000
-0.00860000,-0.00600000,0.11090000,0.01001000,-0.00868000,0.00280000
-0.00860000,-0.00600000,0.11090000,0.01001000,-0.00868000,0.00280000
-0.00450000,-0.01230000,0.09110000,0.00021000,-0.01176000,0.00196000
0.00310000,-0.00740000,0.09780000,0.00098000,-0.00910000,-0.00098000
0.00140000,-0.00470000,0.09620000,0.00581000,0.00007000,0.00105000
-0.00350000,-0.00470000,0.09720000,0.00854000,-0.00147000,0.00266000
-0.00680000,-0.00460000,0.10350000,0.00756000,0.00273000,0.00224000
-0.00680000,-0.00460000,0.10350000,0.00756000,0.00224000,0.00224000
-0.00740000,-0.00710000,0.10830000,-0.00084000,0.00224000,0.00224000
-0.00500000,-0.00860000,0.10260000,-0.01057000,-0.00182000,0.00091000
-0.00420000,-0.00750000,0.09790000,-0.00861000,-0.00392000,0.00105000
-0.00540000,-0.00600000,0.09910000,0.00140000,-0.00364000,0.00147000
-0.00540000,-0.00600000,0.09910000,0.00609000,-0.00469000,0.00161000
-0.00720000,-0.00520000,0.09950000,0.00609000,-0.00469000,0.00161000
-0.00540000,-0.00480000,0.10250000,0.00441000,-0.00287000,0.00098000
-0.00490000,-0.00460000,0.10380000,0.00014000,-0.00168000,0.00084000
-0.00620000,-0.00410000,0.10390000,-0.00231000,-0.00210000,0.00070000
-0.00740000,-0.00500000,0.10220000,-0.00245000,-0.00392000,0.00042000
-0.00570000,-0.00540000,0.09920000,-0.00182000,-0.00567000,-0.00049000
-0.00580000,-0.00470000,0.10140000,0.00056000,-0.00161000,0.00070000
-0.00550000,-0.00560000,0.10090000,0.00063000,-0.00210000,0.00063000
-0.00590000,-0.00530000,0.10200000,0.00112000,-0.00196000,0.00063000
-0.00590000,-0.00530000,0.10200000,0.00112000,-0.00252000,0.00028000
-0.00560000,-0.00500000,0.10140000,0.00112000,-0.00252000,0.00028000
-0.00500000,-0.00560000,0.10180000,0.00098000,-0.00280000,0.00028000
-0.00500000,-0.00560000,0.10180000,0.00098000,-0.00280000,0.00028000
-0.00550000,-0.00540000,0.10170000,0.00000000,-0.00231000,0.00035000
-0.00650000,-0.00540000,0.10220000,-0.00049000,-0.00210000,0.00021000
-0.00590000,-0.00540000,0.10230000,-0.00049000,-0.00266000,0.00007000
-0.00480000,-0.00490000,0.10160000,-0.00035000,-0.00343000,-0.00021000
-0.00470000,-0.00520000,0.10190000,-0.00007000,-0.00343000,0.00007000
-0.00470000,-0.00520000,0.10190000,-0.00007000,-0.00343000,0.00007000
-0.00560000,-0.00530000,0.10100000,-0.00070000,-0.00343000,0.00049000
-0.00450000,-0.00510000,0.10050000,-0.00077000,-0.00343000,0.00021000
-0.00350000,-0.00570000,0.10190000,-0.00007000,-0.00329000,0.00070000
-0.00270000,-0.00690000,0.10340000,-0.00014000,-0.00231000,0.00168000
-0.00240000,-0.00580000,0.09810000,-0.00014000,-0.00182000,0.00238000
-0.00240000,-0.00580000,0.09810000,-0.00014000,-0.00182000,0.00238000
-0.00510000,-0.00410000,0.09970000,0.00434000,-0.00168000,0.00308000
-0.00740000,-0.00490000,0.10450000,0.00602000,-0.00196000,0.00252000
-0.00410000,-0.00440000,0.10470000,-0.00084000,-0.00343000,-0.00357000
-0.00680000,-0.00250000,0.10180000,-0.00504000,-0.00168000,-0.00224000
-0.00690000,-0.00450000,0.08720000,-0.00525000,-0.00161000,0.00070000
-0.00690000,-0.00450000,0.08720000,-0.00525000,-0.00161000,0.00070000
-0.00920000,-0.00800000,0.10300000,0.00098000,0.00427000,0.00105000
-0.01660000,-0.00030000,0.13620000,-0.00385000,0.02926000,0.00000000
-0.01240000,-0.00190000,0.10080000,-0.02639000,0.02807000,0.00126000
-0.00230000,-0.01090000,0.07390000,-0.02989000,-0.00266000,-0.00287000
0.00170000,-0.01160000,0.08810000,-0.00707000,-0.00973000,-0.00441000
0.00170000,-0.01160000,0.08810000,-0.00707000,-0.00973000,-0.00441000
-0.00840000,-0.00830000,0.10910000,0.00833000,0.02072000,0.00259000
-0.02050000,-0.00590000,0.09130000,0.00238000,0.01820000,0.00266000
-0.01700000,-0.01550000,0.09360000,0.00140000,-0.00350000,-0.00497000
-0.00440000,-0.01420000,0.09120000,0.00231000,-0.00595000,-0.00693000
-0.00490000,-0.00840000,0.10180000,0.00476000,-0.00364000,-0.00161000
-0.00490000,-0.00840000,0.10180000,0.00574000,-0.00392000,0.00056000
-0.01020000,-0.00290000,0.10530000,0.00574000,-0.00392000,0.00056000
-0.01180000,-0.00600000,0.10350000,0.00882000,-0.01456000,0.00273000
-0.00720000,-0.00980000,0.10890000,0.01148000,-0.01799000,0.00224000
-0.00670000,-0.00820000,0.11060000,0.00658000,-0.01666000,0.00168000
-0.00920000,-0.00760000,0.10530000,0.00252000,-0.01918000,0.00224000
-0.00920000,-0.00760000,0.10530000,0.00658000,-0.02016000,0.00203000
-0.00890000,-0.00680000,0.10170000,0.00658000,-0.02016000,0.00203000
-0.00860000,-0.00490000,0.10370000,0.01092000,-0.01547000,0.00252000
-0.00370000,-0.00950000,0.09310000,0.00756000,-0.01519000,0.00273000
0.00260000,-0.00410000,0.09650000,0.00679000,-0.00931000,0.00105000
-0.00020000,-0.00240000,0.09930000,0.00924000,-0.00315000,0.00266000
-0.00480000,-0.00250000,0.09730000,0.00945000,-0.00315000,0.00182000
-0.00480000,-0.00250000,0.09730000,0.00945000,-0.00315000,0.00182000
-0.00850000,-0.00310000,0.10190000,0.00770000,0.00021000,0.00196000
-0.00860000,-0.00500000,0.10900000,0.00014000,0.00070000,0.00182000
-0.00490000,-0.00420000,0.10300000,-0.00784000,-0.00287000,-0.00063000
-0.00310000,-0.00460000,0.09690000,-0.00420000,-0.00497000,0.00014000
-0.00310000,-0.00460000,0.09690000,-0.00420000,-0.00497000,0.00014000
-0.00560000,-0.00380000,0.09670000,0.00448000,-0.00511000,0.00189000
-0.00790000,-0.00320000,0.09880000,0.00861000,-0.00308000,0.00168000
-0.00800000,-0.00280000,0.10280000,0.00539000,-0.00280000,0.00091000
-0.00580000,-0.00210000,0.10540000,-0.00070000,-0.00322000,-0.00021000
-0.00480000,-0.00460000,0.10480000,-0.00539000,-0.00469000,-0.00042000
-0.00590000,-0.00430000,0.10010000,0.00112000,-0.00294000,0.00098000
-0.00590000,-0.00430000,0.10010000,0.00112000,-0.00294000,0.00098000
-0.00590000,-0.00410000,0.10080000,0.00007000,-0.00217000,0.00084000
-0.00590000,-0.00410000,0.10080000,0.00007000,-0.00217000,0.00084000
-0.00560000,-0.00370000,0.10080000,-0.00070000,-0.00161000,0.00042000
-0.00570000,-0.00410000,0.10190000,-0.00021000,-0.00252000,0.00056000
-0.00560000,-0.00470000,0.10190000,-0.00021000,-0.00308000,0.00042000
-0.00560000,-0.00470000,0.10190000,-0.00021000,-0.00308000,0.00042000
-0.00540000,-0.00430000,0.10210000,-0.00042000,-0.00287000,0.00028000
-0.00510000,-0.00420000,0.10150000,0.00000000,-0.00259000,0.00042000
-0.00470000,-0.00430000,0.10140000,0.00077000,-0.00252000,0.00063000
-0.00460000,-0.00430000,0.10170000,0.00077000,-0.00224000,0.00070000
-0.00460000,-0.00430000,0.10170000,-0.00014000,-0.00231000,0.00091000
-0.00500000,-0.00520000,0.10080000,-0.00014000,-0.00231000,0.00091000
-0.00560000,-0.00440000,0.10090000,-0.00063000,-0.00273000,0.00084000
-0.00450000,-0.00400000,0.10230000,0.00049000,-0.00329000,0.00070000
-0.00390000,-0.00370000,0.10310000,0.00147000,-0.00413000,0.00126000
-0.00360000,-0.00430000,0.10350000,0.00098000,-0.00469000,0.00182000
-0.00430000,-0.00340000,0.10210000,-0.00049000,-0.00546000,0.00196000
-0.00430000,-0.00340000,0.10210000,-0.00049000,-0.00546000,0.00196000
-0.00580000,-0.00580000,0.09930000,-0.00126000,-0.00525000,0.00014000
-0.00470000,-0.00620000,0.10090000,-0.00175000,-0.00322000,-0.00280000
-0.00410000,-0.00230000,0.09870000,-0.00063000,-0.00056000,0.00021000
-0.00380000,-0.00080000,0.09640000,0.00357000,-0.00084000,0.00168000
-0.00460000,-0.00430000,0.09630000,0.00644000,0.00119000,0.00161000
-0.00460000,-0.00430000,0.09630000,0.00644000,0.00119000,0.00301000
-0.01480000,-0.00700000,0.11710000,0.00378000,0.01197000,0.00301000
-0.01540000,0.00020000,0.11080000,-0.01015000,0.02625000,0.00196000
-0.00670000,-0.00320000,0.09820000,-0.01414000,-0.00077000,-0.00238000
-0.00090000,-0.00530000,0.08330000,-0.01414000,-0.00077000,-0.00238000
-0.00470000,-0.00870000,0.10200000,0.00189000,0.00903000,0.00028000
-0.01440000,-0.00730000,0.09470000,0.00560000,0.02282000,0.00364000
-0.01870000,-0.00830000,0.09980000,0.00308000,0.00742000,-0.00063000
-0.01040000,-0.01030000,0.09870000,-0.00112000,-0.00189000,-0.00511000
-0.01040000,-0.01030000,0.10050000,-0.00252000,-0.00224000,-0.00357000
-0.00660000,-0.00760000,0.10050000,-0.00252000,-0.00224000,-0.00357000
-0.00790000,-0.00590000,0.09990000,-0.00077000,-0.00455000,-0.00231000
-0.01030000,-0.00540000,0.10040000,0.00259000,-0.00812000,-0.00063000
-0.01000000,-0.00700000,0.10120000,0.00224000,-0.01792000,-0.00021000
-0.00640000,-0.00650000,0.10230000,-0.00119000,-0.02716000,-0.00035000
-0.00310000,-0.00520000,0.10260000,0.00203000,-0.02289000,0.00196000
-0.00310000,-0.00520000,0.10260000,0.00203000,-0.02289000,0.00196000
-0.00590000,-0.00760000,0.10640000,0.00917000,-0.01813000,0.00434000
-0.00800000,-0.00670000,0.10280000,0.01001000,-0.01792000,0.00336000
-0.00670000,-0.00360000,0.09930000,0.01057000,-0.01330000,0.00203000
-0.00630000,-0.00350000,0.10730000,0.01099000,-0.01092000,0.00154000
-0.00770000,-0.00770000,0.10220000,0.00364000,-0.00938000,0.00084000
-0.00770000,-0.00770000,0.10220000,0.00364000,-0.00938000,0.00084000
-0.00350000,-0.00680000,0.09940000,-0.00455000,-0.00833000,-0.00189000
-0.00240000,-0.00370000,0.09880000,-0.00259000,-0.00280000,-0.00189000
-0.00050000,-0.00340000,0.09220000,0.00238000,-0.00476000,-0.00035000
-0.00100000,0.00110000,0.09710000,0.01036000,-0.00231000,0.00028000
-0.00570000,0.00010000,0.10340000,0.01239000,-0.00091000,0.00231000
-0.00570000,0.00010000,0.10340000,0.00350000,-0.00238000,0.00364000
-0.00940000,-0.00340000,0.10560000,0.00350000,-0.00238000,0.00364000
-0.00720000,-0.00430000,0.10550000,-0.00721000,-0.00287000,0.00133000
-0.00340000,-0.00390000,0.09950000,-0.00889000,-0.00665000,-0.00014000
-0.00380000,-0.00350000,0.09890000,-0.00035000,-0.00721000,0.00119000
-0.00500000,-0.00270000,0.09890000,0.00420000,-0.00616000,0.00126000
-0.00460000,-0.00340000,0.09700000,0.00231000,-0.00301000,0.00133000
-0.00520000,-0.00400000,0.10200000,-0.00049000,-0.00238000,0.00063000
-0.00360000,-0.00400000,0.10090000,0.00084000,-0.00273000,0.00042000
-0.00500000,-0.00370000,0.10290000,0.00210000,-0.00266000,0.00112000
-0.00590000,-0.00420000,0.10240000,0.00049000,-0.00350000,0.00077000
-0.00590000,-0.00420000,0.10240000,0.00049000,-0.00350000,0.00077000
-0.00460000,-0.00450000,0.10150000,-0.00175000,-0.00364000,0.00021000
-0.00460000,-0.00450000,0.10150000,-0.00175000,-0.00364000,0.00021000
-0.00390000,-0.00470000,0.10030000,-0.00189000,-0.00350000,0.00021000
-0.00480000,-0.00440000,0.10010000,0.00028000,-0.00329000,0.00077000
-0.00500000,-0.00360000,0.10180000,0.00210000,-0.00364000,0.00070000
-0.00460000,-0.00420000,0.10210000,0.00161000,-0.00413000,0.00056000
-0.00460000,-0.00420000,0.10090000,-0.00021000,-0.00413000,0.00063000
-0.00450000,-0.00470000,0.10090000,-0.00021000,-0.00413000,0.00063000
-0.00370000,-0.00490000,0.10030000,-0.00098000,-0.00364000,0.00042000
-0.00360000,-0.00460000,0.09990000,-0.00007000,-0.00371000,0.00056000
-0.00410000,-0.00570000,0.10010000,0.00175000,-0.00245000,0.00119000
-0.00340000,-0.00510000,0.10240000,0.00224000,-0.00098000,0.00168000
-0.00330000,-0.00170000,0.10230000,0.00280000,-0.00049000,0.00175000
-0.00330000,-0.00170000,0.10230000,0.00280000,-0.00049000,0.00175000
-0.00460000,-0.00370000,0.10310000,0.00308000,-0.00245000,0.00245000
-0.00610000,-0.00730000,0.10130000,-0.00189000,-0.00420000,0.00028000
-0.00420000,-0.00450000,0.09770000,-0.00616000,-0.00217000,-0.00469000
-0.00430000,-0.00140000,0.09970000,-0.00252000,-0.00042000,-0.00224000
-0.00310000,-0.00180000,0.09480000,0.00140000,-0.00021000,0.00105000
-0.00310000,-0.00180000,0.09480000,0.00287000,0.00294000,0.00301000
-0.00590000,-0.00690000,0.09900000,0.00287000,0.00294000,0.00301000
-0.01680000,-0.00610000,0.11610000,-0.00077000,0.01932000,0.00259000
-0.01130000,0.00290000,0.10590000,-0.01120000,0.03066000,0.00112000
-0.00550000,-0.00630000,0.09050000,-0.01610000,0.00952000,0.00007000
-0.00120000,-0.00850000,0.08230000,-0.00742000,-0.00406000,-0.00406000
-0.00550000,-0.00900000,0.10450000,0.00812000,0.01316000,0.00021000
-0.00550000,-0.00900000,0.10450000,0.00812000,0.01316000,0.00021000
-0.01380000,-0.00250000,0.09830000,0.00966000,0.02156000,0.00357000
-0.01720000,-0.00400000,0.10560000,0.00889000,0.00623000,-0.00056000
-0.01000000,-0.00680000,0.10350000,0.00364000,-0.00294000,-0.00518000
-0.01000000,-0.00830000,0.10170000,-0.00238000,-0.00693000,-0.00462000
-0.00510000,-0.00830000,0.10170000,-0.00238000,-0.00693000,-0.00462000
-0.00550000,-0.00730000,0.10290000,-0.00469000,-0.01001000,-0.00028000
-0.00980000,-0.00540000,0.10400000,-0.00308000,-0.01232000,0.00399000
-0.01010000,-0.00540000,0.10060000,-0.00140000,-0.02100000,0.00182000
-0.00540000,-0.00750000,0.10110000,0.00140000,-0.02429000,-0.00105000
-0.00300000,-0.00820000,0.10200000,0.00343000,-0.01771000,-0.00035000
-0.00300000,-0.00820000,0.10200000,0.00343000,-0.01484000,0.00147000
-0.00510000,-0.00750000,0.10650000,0.00336000,-0.01484000,0.00147000
-0.00760000,-0.00740000,0.10140000,0.00525000,-0.01197000,0.00203000
-0.00680000,-0.00380000,0.10490000,0.00868000,-0.01064000,0.00049000
-0.00410000,-0.00330000,0.09480000,0.00805000,-0.00812000,-0.00014000
-0.00140000,-0.00430000,0.09490000,0.00609000,-0.00595000,-0.00049000
-0.00310000,-0.00130000,0.10020000,0.00539000,-0.00021000,0.00063000
-0.00310000,-0.00130000,0.10020000,0.00539000,-0.00021000,0.00063000
-0.00570000,-0.00160000,0.09970000,0.00434000,-0.00154000,0.00252000
-0.00590000,-0.00240000,0.09940000,0.00406000,-0.00329000,0.00210000
-0.00610000,-0.00240000,0.10010000,0.00245000,-0.00217000,0.00147000
-0.00800000,-0.00410000,0.10370000,-0.00028000,-0.00189000,0.00217000
-0.00750000,-0.00380000,0.10020000,-0.00266000,-0.00287000,0.00112000
-0.00750000,-0.00380000,0.10020000,-0.00266000,-0.00287000,0.00112000
-0.00550000,-0.00310000,0.09660000,-0.00063000,-0.00364000,0.00007000
-0.00540000,-0.00440000,0.10000000,0.00322000,-0.00266000,0.00056000
-0.00680000,-0.00390000,0.10230000,0.00343000,-0.00014000,0.00105000
-0.00630000,-0.00150000,0.10310000,0.00238000,-0.00028000,0.00014000
-0.00440000,-0.00390000,0.10140000,0.00063000,-0.00273000,0.00049000
-0.00430000,-0.00370000,0.10200000,0.00063000,-0.00287000,0.00000000
-0.00430000,-0.00370000,0.10200000,0.00063000,-0.00287000,0.00000000
-0.00370000,-0.00360000,0.10210000,0.00021000,-0.00273000,0.00042000
-0.00510000,-0.00330000,0.10220000,0.00035000,-0.00245000,0.00105000
-0.00510000,-0.00330000,0.10220000,0.00035000,-0.00245000,0.00105000
-0.00610000,-0.00380000,0.10250000,0.00021000,-0.00315000,0.00098000
-0.00530000,-0.00350000,0.10290000,-0.00091000,-0.00427000,0.00028000
-0.00430000,-0.00370000,0.10240000,-0.00154000,-0.00497000,0.00014000
-0.00430000,-0.00370000,0.10240000,-0.00154000,-0.00497000,0.00014000
-0.00490000,-0.00320000,0.10140000,-0.00133000,-0.00525000,0.00056000
-0.00490000,-0.00260000,0.10020000,-0.00042000,-0.00497000,0.00070000
-0.00360000,-0.00280000,0.10180000,0.00098000,-0.00483000,0.00105000
-0.00440000,-0.00410000,0.10430000,0.00007000,-0.00497000,0.00126000
-0.00530000,-0.00580000,0.10240000,-0.00308000,-0.00518000,0.00126000
-0.00530000,-0.00580000,0.10240000,-0.00413000,-0.00448000,0.00063000
-0.00430000,-0.00560000,0.10120000,-0.00413000,-0.00448000,0.00063000
-0.00200000,-0.00480000,0.10520000,-0.00378000,-0.00511000,0.00014000
-0.00100000,-0.00400000,0.09510000,-0.00336000,-0.00497000,0.00203000
-0.00370000,-0.00290000,0.09110000,0.00259000,-0.00350000,0.00357000
-0.00450000,-0.00500000,0.09070000,0.00749000,0.00007000,-0.00007000
-0.00450000,-0.00500000,0.10170000,0.00644000,0.00420000,0.00021000
-0.00610000,-0.00260000,0.10170000,0.00644000,0.00420000,0.00021000
-0.00970000,-0.00570000,0.12200000,-0.00273000,0.01057000,0.00259000
-0.01740000,-0.00350000,0.11090000,-0.01708000,0.01463000,0.00161000
-0.01020000,0.00150000,0.09390000,-0.01610000,0.02877000,0.00042000
0.00020000,-0.00030000,0.08990000,-0.00735000,0.01757000,0.00161000
-0.00330000,-0.00380000,0.08300000,0.00105000,-0.00028000,-0.00028000
-0.00330000,-0.00380000,0.08300000,0.00105000,-0.00028000,-0.00028000
-0.01510000,-0.00970000,0.11530000,0.00938000,0.01925000,0.00021000
-0.01960000,-0.00960000,0.09650000,-0.00511000,0.01799000,-0.00210000
-0.01380000,-0.01070000,0.10030000,-0.01050000,-0.00504000,-0.00679000
-0.00400000,-0.00810000,0.09460000,-0.00315000,-0.00350000,-0.00686000
-0.00590000,-0.00640000,0.09870000,0.00567000,-0.00483000,-0.00259000
-0.00590000,-0.00640000,0.09870000,0.00749000,-0.00938000,-0.00112000
-0.01010000,-0.00610000,0.10230000,0.00749000,-0.00938000,-0.00112000
-0.00980000,-0.00430000,0.10710000,0.00252000,-0.01946000,-0.00112000
-0.00610000,-0.00500000,0.10300000,-0.00273000,-0.02618000,0.00147000
-0.00360000,-0.00750000,0.10420000,-0.00098000,-0.02254000,0.00350000
-0.00520000,-0.01020000,0.10880000,0.00301000,-0.01638000,0.00245000
-0.00520000,-0.01020000,0.10880000,0.00301000,-0.01638000,0.00245000
-0.00640000,-0.00870000,0.10190000,0.00616000,-0.01673000,0.00182000
-0.00370000,-0.00460000,0.09790000,0.01316000,-0.01407000,0.00266000
-0.00590000,-0.00330000,0.11120000,0.01463000,-0.01190000,0.00343000
-0.00760000,-0.00690000,0.09620000,0.00252000,-0.01113000,0.00182000
-0.00180000,-0.00490000,0.09410000,-0.00231000,-0.00875000,-0.00077000
-0.00180000,-0.00490000,0.09410000,-0.00231000,-0.00875000,-0.00077000
-0.00010000,-0.00240000,0.09580000,0.00406000,-0.00245000,-0.00098000
-0.00220000,-0.00390000,0.09840000,0.00686000,-0.00217000,0.00070000
-0.00510000,-0.00050000,0.09770000,0.00602000,-0.00091000,0.00182000
-0.00700000,-0.00240000,0.10240000,0.00637000,-0.00133000,0.00259000
-0.00750000,-0.00440000,0.10560000,0.00238000,-0.00133000,0.00287000
-0.00750000,-0.00440000,0.10560000,-0.00266000,-0.00392000,0.00084000
-0.00400000,-0.00110000,0.09940000,-0.00266000,-0.00392000,0.00084000
-0.00200000,-0.00040000,0.09670000,0.00154000,-0.00385000,0.00105000
-0.00640000,-0.00170000,0.10040000,0.00497000,-0.00245000,0.00357000
-0.01040000,-0.00260000,0.10360000,0.00217000,-0.00056000,0.00343000
-0.00910000,-0.00450000,0.10060000,-0.00273000,-0.00266000,0.00105000
-0.00480000,-0.00500000,0.10450000,-0.00448000,-0.00371000,-0.00112000
-0.00480000,-0.00500000,0.10450000,-0.00448000,-0.00371000,-0.00112000
-0.00570000,-0.00370000,0.10170000,-0.00070000,-0.00322000,0.00007000
-0.00500000,-0.00390000,0.10170000,0.00126000,-0.00252000,0.00021000
-0.00560000,-0.00390000,0.10210000,0.00035000,-0.00231000,0.00063000
-0.00530000,-0.00310000,0.10130000,-0.00098000,-0.00259000,0.00014000
-0.00530000,-0.00310000,0.10130000,-0.00098000,-0.00259000,0.00014000
-0.00520000,-0.00350000,0.10090000,-0.00042000,-0.00322000,0.00007000
-0.00520000,-0.00350000,0.10090000,-0.00042000,-0.00322000,0.00007000
-0.00610000,-0.00350000,0.10090000,-0.00014000,-0.00329000,0.00014000
-0.00510000,-0.00310000,0.10130000,-0.00049000,-0.00315000,-0.00021000
-0.00510000,-0.00310000,0.10130000,-0.00049000,-0.00315000,-0.00021000
-0.00400000,-0.00300000,0.10230000,-0.00091000,-0.00301000,-0.00014000
-0.00510000,-0.00290000,0.10250000,-0.00105000,-0.00287000,0.00028000
-0.00610000,-0.00310000,0.10180000,-0.00077000,-0.00329000,0.00021000
-0.00450000,-0.00350000,0.10040000,0.00028000,-0.00469000,-0.00028000
-0.00330000,-0.00360000,0.10220000,0.00161000,-0.00476000,-0.00028000
-0.00330000,-0.00360000,0.10220000,0.00161000,-0.00476000,-0.00028000
-0.00500000,-0.00340000,0.10390000,0.00056000,-0.00427000,0.00014000
-0.00590000,-0.00400000,0.10290000,-0.00224000,-0.00504000,0.00007000
-0.00440000,-0.00440000,0.10080000,-0.00329000,-0.00609000,-0.00028000
-0.00250000,-0.00390000,0.10080000,-0.00203000,-0.00651000,-0.00021000
-0.00310000,-0.00410000,0.09950000,-0.00014000,-0.00616000,0.00105000
-0.00370000,-0.00480000,0.10030000,0.00056000,-0.00553000,0.00168000
-0.00370000,-0.00480000,0.10030000,0.00056000,-0.00553000,0.00168000
-0.00260000,-0.00450000,0.09810000,-0.00063000,-0.00427000,0.00168000
-0.00180000,-0.00450000,0.09730000,0.00000000,-0.00238000,0.00175000
0.00010000,-0.00430000,0.10560000,-0.00028000,0.00119000,-0.00245000
-0.00640000,0.00160000,0.11370000,-0.00553000,0.00413000,-0.00161000
-0.00410000,-0.00220000,0.08990000,-0.01085000,0.00546000,0.00210000
-0.00410000,-0.00220000,0.08990000,-0.01085000,0.00546000,0.00637000
-0.00970000,-0.01260000,0.10150000,-0.00630000,0.01211000,0.00637000
-0.01990000,0.00490000,0.11400000,-0.01204000,0.04452000,0.00448000
-0.01300000,0.00310000,0.10070000,-0.02100000,0.03983000,0.00119000
-0.00670000,-0.00720000,0.06930000,-0.01981000,-0.01211000,-0.00462000
-0.00840000,-0.01810000,0.11860000,0.00035000,0.00007000,-0.00686000
-0.00840000,-0.01810000,0.11860000,-0.01113000,0.01596000,-0.00427000
-0.01300000,-0.01630000,0.08290000,-0.01113000,0.01596000,-0.00427000
-0.01510000,-0.01120000,0.09780000,-0.00889000,-0.00609000,-0.00434000
-0.00580000,-0.00650000,0.10220000,0.00014000,-0.00532000,-0.00560000
-0.00320000,-0.00200000,0.10410000,0.00336000,-0.01330000,-0.00280000
-0.00560000,-0.00290000,0.10450000,0.00539000,-0.01974000,0.00112000
-0.00660000,-0.00490000,0.10640000,0.00672000,-0.01904000,0.00266000
-0.00660000,-0.00490000,0.10640000,0.00672000,-0.01904000,0.00266000
-0.00640000,-0.00450000,0.10090000,0.00693000,-0.02296000,0.00336000
-0.00360000,-0.00310000,0.09370000,0.01218000,-0.02212000,0.00280000
-0.00540000,-0.00360000,0.10550000,0.01743000,-0.01491000,0.00364000
-0.00540000,-0.00360000,0.10550000,0.01211000,-0.01064000,0.00427000
-0.01040000,-0.00490000,0.10660000,0.01211000,-0.01064000,0.00427000
-0.01170000,-0.00710000,0.11020000,0.00392000,-0.00854000,0.00210000
-0.00780000,-0.01210000,0.10130000,-0.00616000,-0.00875000,-0.00175000
0.00080000,-0.01230000,0.09350000,-0.00854000,-0.01029000,-0.00308000
0.00230000,-0.00620000,0.09430000,0.00252000,-0.00161000,-0.00035000
-0.00280000,-0.00630000,0.09580000,0.01204000,0.00567000,0.00070000
-0.00280000,-0.00630000,0.09580000,0.01204000,0.00567000,0.00070000
-0.00780000,-0.00570000,0.10520000,0.01015000,0.00686000,0.00126000
-0.00770000,-0.00370000,0.09960000,0.00112000,0.00168000,0.00063000
-0.00260000,-0.00480000,0.09950000,-0.00266000,-0.00259000,-0.00105000
-0.00150000,-0.00570000,0.09850000,-0.00098000,-0.00196000,0.00091000
-0.00420000,-0.00480000,0.09870000,0.00364000,0.00049000,0.00364000
-0.00420000,-0.00480000,0.09870000,0.00364000,0.00049000,0.00364000
-0.00670000,-0.00240000,0.10520000,0.00749000,0.00273000,0.00476000
-0.00510000,-0.00460000,0.10090000,0.00175000,-0.00266000,0.00042000
-0.00460000,-0.00480000,0.10150000,-0.00035000,-0.00217000,0.00035000
-0.00510000,-0.00420000,0.10200000,-0.00007000,-0.00189000,0.00070000
-0.00510000,-0.00420000,0.10200000,-0.00007000,-0.00189000,0.00070000
-0.00580000,-0.00390000,0.10130000,0.00084000,-0.00210000,0.00063000
-0.00550000,-0.00390000,0.10090000,0.00154000,-0.00266000,0.00056000
-0.00550000,-0.00390000,0.10090000,0.00154000,-0.00266000,0.00056000
-0.00540000,-0.00390000,0.10060000,0.00140000,-0.00224000,0.00063000
-0.00550000,-0.00340000,0.10330000,0.00140000,-0.00147000,0.00063000
-0.00550000,-0.00340000,0.10330000,0.00140000,-0.00147000,0.00063000
-0.00580000,-0.00400000,0.10250000,0.00042000,-0.00203000,0.00063000
-0.00540000,-0.00350000,0.10210000,0.00035000,-0.00245000,0.00070000
-0.00530000,-0.00320000,0.10260000,0.00056000,-0.00301000,0.00063000
-0.00550000,-0.00370000,0.10160000,-0.00042000,-0.00385000,0.00056000
-0.00520000,-0.00450000,0.09920000,-0.00119000,-0.00392000,0.00035000
-0.00520000,-0.00450000,0.09920000,-0.00063000,-0.00343000,0.00000000
-0.00410000,-0.00600000,0.10140000,-0.00063000,-0.00343000,0.00000000
-0.00390000,-0.00660000,0.10460000,-0.00224000,-0.00308000,0.00028000
-0.00320000,-0.00520000,0.10510000,-0.00518000,-0.00483000,0.00063000
-0.00170000,-0.00360000,0.10910000,-0.00539000,-0.00511000,0.00105000
0.00150000,-0.00210000,0.10220000,-0.00700000,-0.00602000,0.00168000
0.00160000,-0.00190000,0.08050000,-0.00644000,-0.00273000,-0.00140000
0.00160000,-0.00190000,0.08050000,-0.00644000,-0.00273000,-0.00140000
0.00100000,-0.01180000,0.06680000,0.00553000,0.00840000,0.00294000
-0.03010000,-0.00740000,0.15980000,0.01575000,0.04326000,0.01316000
-0.02820000,0.02500000,0.09850000,-0.02513000,0.07441000,0.00490000
-0.01490000,-0.00680000,0.07510000,-0.02597000,0.00644000,-0.00119000
0.00010000,-0.02080000,0.08570000,-0.00574000,-0.03325000,-0.01141000
0.00010000,-0.02080000,0.08570000,0.00217000,0.00812000,-0.00791000
-0.00100000,-0.02190000,0.09430000,0.00217000,0.00812000,-0.00791000
-0.01540000,-0.00410000,0.09120000,0.00469000,0.01981000,0.00273000
-0.01930000,-0.00150000,0.11140000,0.01246000,-0.00035000,0.00182000
-0.00890000,-0.00550000,0.10890000,0.01197000,-0.01127000,-0.00406000
-0.00450000,-0.00830000,0.11180000,0.00469000,-0.02142000,-0.00028000
-0.00450000,-0.00830000,0.11180000,0.00469000,-0.02142000,0.00742000
-0.00840000,-0.00550000,0.10910000,-0.00224000,-0.02247000,0.00742000
-0.00960000,-0.00520000,0.09850000,0.00126000,-0.01883000,0.00581000
-0.00660000,-0.00430000,0.10130000,0.01113000,-0.02177000,0.00070000
-0.00500000,-0.00190000,0.10460000,0.01547000,-0.01435000,0.00112000
-0.00980000,-0.00360000,0.10900000,0.00672000,-0.00861000,0.00252000
-0.00980000,-0.00360000,0.10900000,-0.00532000,-0.01169000,0.00000000
-0.00370000,-0.00740000,0.09070000,-0.00532000,-0.01169000,0.00000000
0.00240000,-0.00330000,0.09200000,-0.00070000,-0.00553000,-0.00028000
-0.00380000,-0.00420000,0.09490000,0.00966000,0.00483000,0.00294000
-0.01150000,-0.00560000,0.10490000,0.01295000,0.00714000,0.00399000
-0.01380000,-0.00440000,0.10360000,0.00833000,0.00532000,0.00252000
-0.00790000,-0.00480000,0.10140000,0.00273000,-0.00091000,-0.00133000
-0.00790000,-0.00480000,0.10140000,0.00273000,-0.00091000,-0.00133000
-0.00270000,-0.00430000,0.09120000,0.00238000,-0.00154000,-0.00154000
-0.00660000,-0.00130000,0.10310000,0.01050000,0.00553000,0.00147000
-0.01300000,-0.00280000,0.10970000,0.00952000,0.00441000,0.00154000
-0.01120000,-0.00320000,0.10350000,0.00098000,-0.00070000,-0.00063000
-0.00550000,-0.00200000,0.10150000,-0.00210000,-0.00392000,-0.00154000
-0.00550000,-0.00200000,0.10150000,0.00119000,-0.00343000,-0.00063000
-0.00670000,-0.00120000,0.09870000,0.00119000,-0.00343000,-0.00063000
-0.01000000,-0.00030000,0.10110000,0.00434000,-0.00252000,0.00021000
-0.00930000,-0.00130000,0.10320000,0.00280000,-0.00357000,-0.00014000
-0.00750000,-0.00380000,0.10470000,-0.00189000,-0.00301000,-0.00042000
-0.00820000,-0.00350000,0.10070000,-0.00462000,-0.00357000,-0.00014000
-0.00870000,-0.00210000,0.10050000,-0.00035000,-0.00532000,-0.00042000
-0.00810000,-0.00120000,0.10050000,0.00140000,-0.00406000,0.00133000
-0.00760000,-0.00170000,0.10200000,-0.00056000,-0.00441000,0.00098000
-0.00760000,-0.00170000,0.10200000,-0.00056000,-0.00441000,0.00098000
-0.00830000,-0.00180000,0.10120000,-0.00098000,-0.00504000,0.00084000
-0.00740000,-0.00150000,0.10070000,-0.00070000,-0.00574000,0.00042000
-0.00740000,-0.00150000,0.10070000,-0.00070000,-0.00574000,0.00042000
-0.00620000,-0.00200000,0.09960000,0.00077000,-0.00455000,0.00063000
-0.00620000,-0.00200000,0.09960000,0.00077000,-0.00455000,0.00063000
-0.00960000,-0.00070000,0.10240000,0.00007000,-0.00385000,0.00042000
-0.00960000,-0.00070000,0.10240000,0.00007000,-0.00385000,0.00042000
-0.00900000,-0.00220000,0.10130000,-0.00315000,-0.00511000,-0.00049000
-0.00750000,-0.00260000,0.10200000,-0.00511000,-0.00518000,-0.00133000
-0.00680000,-0.00230000,0.10040000,-0.00378000,-0.00532000,-0.00147000
-0.00520000,-0.00200000,0.10070000,0.00007000,-0.00609000,-0.00147000
-0.00380000,-0.00120000,0.10400000,0.00196000,-0.00637000,-0.00084000
-0.00380000,-0.00120000,0.10400000,0.00014000,-0.00588000,0.00014000
-0.00400000,-0.00060000,0.10670000,0.00014000,-0.00588000,0.00014000
-0.00010000,-0.00330000,0.10010000,-0.00476000,-0.00455000,0.00091000
-0.00060000,-0.00290000,0.08640000,-0.00672000,-0.00224000,0.00315000
-0.00600000,-0.00490000,0.07890000,0.00035000,0.00462000,0.00119000
-0.01030000,-0.00810000,0.10060000,0.01078000,0.02198000,0.00112000
-0.03340000,0.00070000,0.14990000,0.00784000,0.05089000,0.00721000
-0.03340000,0.00070000,0.14990000,0.00784000,0.05089000,0.00721000
-0.02460000,0.01430000,0.09400000,-0.01330000,0.05306000,0.00420000
-0.00430000,-0.00740000,0.07720000,-0.01785000,-0.01302000,-0.01120000
0.00550000,-0.01030000,0.08200000,-0.01085000,-0.03311000,-0.01309000
-0.00330000,-0.00210000,0.09810000,0.00469000,0.02765000,0.00308000
-0.00330000,-0.00210000,0.09810000,0.00469000,0.02765000,0.00308000
-0.02100000,0.00200000,0.09760000,0.01421000,0.03668000,0.00805000
-0.02540000,-0.00350000,0.10900000,0.01498000,-0.00728000,-0.00028000
-0.01080000,-0.00390000,0.10430000,0.00889000,-0.01197000,-0.00539000
-0.00560000,-0.00150000,0.10810000,0.00021000,-0.01841000,-0.00287000
-0.01130000,-0.00330000,0.10660000,-0.00371000,-0.02114000,0.00399000
-0.01130000,-0.00330000,0.10660000,-0.00371000,-0.02114000,0.00686000
-0.01400000,-0.00380000,0.10850000,0.00098000,-0.02240000,0.00686000
-0.00940000,-0.00140000,0.10320000,0.00770000,-0.01953000,0.00294000
-0.00680000,-0.00020000,0.10340000,0.01169000,-0.01995000,0.00196000
-0.00740000,0.00160000,0.10200000,0.01260000,-0.01386000,0.00399000
-0.01220000,-0.00150000,0.10740000,0.00742000,-0.00581000,0.00329000
-0.01220000,-0.00150000,0.10740000,-0.00455000,-0.00861000,-0.00084000
-0.00880000,-0.00560000,0.09710000,-0.00455000,-0.00861000,-0.00084000
-0.00430000,-0.00580000,0.09760000,-0.00679000,-0.00672000,-0.00084000
-0.00540000,-0.00270000,0.09840000,-0.00273000,-0.00420000,0.00224000
-0.00550000,0.00060000,0.09450000,0.00644000,-0.00406000,0.00126000
-0.00530000,0.00140000,0.09910000,0.01337000,-0.00105000,0.00098000
-0.00850000,0.00090000,0.10670000,0.00903000,-0.00084000,0.00343000
-0.00850000,0.00090000,0.10670000,0.00903000,-0.00084000,0.00343000
-0.00920000,0.00150000,0.09880000,-0.00112000,-0.00364000,0.00280000
-0.00730000,0.00110000,0.09800000,-0.00287000,-0.00630000,0.00196000
-0.00810000,-0.00050000,0.09810000,0.00112000,-0.00385000,0.00294000
-0.01000000,0.00120000,0.10160000,0.00336000,-0.00217000,0.00322000
-0.00970000,0.00200000,0.10470000,0.00224000,-0.00238000,0.00210000
-0.00970000,0.00200000,0.10470000,-0.00252000,-0.00511000,0.00126000
-0.00870000,-0.00300000,0.10020000,-0.00252000,-0.00511000,0.00126000
-0.01000000,-0.00390000,0.10120000,-0.00462000,-0.00091000,0.00112000
-0.01150000,-0.00010000,0.10340000,-0.00364000,-0.00070000,0.00014000
-0.00880000,0.00000000,0.10280000,-0.00028000,-0.00455000,-0.00154000
-0.00880000,0.00000000,0.10190000,-0.00035000,-0.00553000,-0.00182000
-0.00680000,0.00000000,0.10190000,-0.00035000,-0.00553000,-0.00182000
-0.00680000,-0.00030000,0.09930000,-0.00308000,-0.00371000,-0.00126000
-0.00920000,-0.00110000,0.10170000,0.00063000,-0.00196000,-0.00035000
-0.00710000,0.00060000,0.10120000,0.00070000,-0.00322000,-0.00021000
-0.00710000,0.00060000,0.10120000,0.00070000,-0.00322000,-0.00021000
-0.00730000,0.00010000,0.10220000,0.00042000,-0.00336000,-0.00007000
-0.00730000,0.00010000,0.10220000,0.00042000,-0.00336000,-0.00007000
-0.00770000,-0.00040000,0.10190000,-0.00189000,-0.00350000,0.00014000
-0.00680000,-0.00030000,0.10160000,-0.00385000,-0.00434000,0.00021000
-0.00680000,-0.00030000,0.10160000,-0.00385000,-0.00434000,0.00021000
-0.00720000,0.00050000,0.10100000,-0.00273000,-0.00455000,0.00070000
-0.00860000,0.00030000,0.10280000,0.00014000,-0.00483000,0.00098000
-0.00840000,0.00010000,0.10020000,-0.00035000,-0.00588000,0.00021000
-0.00670000,-0.00240000,0.09760000,-0.00231000,-0.00651000,-0.00014000
-0.00760000,-0.00410000,0.10240000,-0.00308000,-0.00378000,0.00014000
-0.00960000,-0.00180000,0.10440000,-0.00434000,-0.00245000,-0.00021000
-0.00960000,-0.00180000,0.10440000,-0.00434000,-0.00245000,-0.00105000
-0.00800000,0.00170000,0.10680000,-0.00315000,-0.00588000,-0.00105000
-0.00360000,0.00020000,0.09810000,-0.00070000,-0.00903000,-0.00084000
-0.00180000,-0.00260000,0.09620000,0.00049000,-0.00623000,0.00063000
-0.00430000,-0.00040000,0.09630000,0.00049000,-0.00098000,0.00301000
-0.00640000,0.00020000,0.09870000,0.00280000,0.00084000,0.00245000
-0.00640000,0.00020000,0.09870000,0.00280000,0.00084000,-0.00091000
-0.00790000,0.00060000,0.11690000,0.00154000,0.00014000,-0.00091000
-0.00790000,0.00030000,0.10620000,-0.00987000,0.00245000,0.00049000
-0.01340000,-0.00570000,0.09890000,-0.01449000,0.01309000,0.00336000
-0.02290000,0.00280000,0.10950000,-0.01526000,0.03962000,0.00259000
-0.01010000,0.00690000,0.08390000,-0.01337000,0.03024000,-0.00161000
-0.01010000,0.00690000,0.08390000,-0.00525000,-0.01673000,-0.00616000
-0.00480000,-0.00460000,0.08390000,-0.00525000,-0.01673000,-0.00616000
-0.01420000,-0.00610000,0.08870000,0.00728000,0.02380000,0.00266000
-0.02230000,-0.00850000,0.11330000,0.00546000,0.00497000,-0.00028000
-0.02230000,-0.00850000,0.11330000,0.00546000,0.00497000,-0.00028000
-0.01470000,-0.00480000,0.09950000,-0.00371000,-0.00056000,-0.00455000
-0.00830000,-0.00390000,0.10620000,-0.00301000,-0.01351000,-0.00259000
-0.00690000,-0.00470000,0.10310000,-0.00280000,-0.01407000,-0.00021000
-0.01080000,-0.00340000,0.10530000,-0.00427000,-0.01953000,0.00168000
-0.01010000,-0.00270000,0.10430000,-0.00301000,-0.02639000,0.00294000
-0.01010000,-0.00270000,0.10430000,-0.00301000,-0.02639000,0.00525000
-0.00520000,-0.00150000,0.09710000,-0.00035000,-0.02786000,0.00525000
-0.00380000,-0.00150000,0.09770000,0.00504000,-0.01946000,0.00525000
-0.00920000,-0.00320000,0.10280000,0.00917000,-0.00756000,0.00280000
-0.01320000,-0.00430000,0.10710000,0.00651000,-0.00903000,0.00140000
-0.01030000,-0.00550000,0.10490000,0.00133000,-0.00966000,-0.00049000
-0.01030000,-0.00550000,0.10530000,-0.00245000,-0.00665000,-0.00210000
-0.00940000,-0.00650000,0.10530000,-0.00245000,-0.00665000,-0.00210000
-0.00530000,-0.00790000,0.09030000,-0.00406000,-0.00609000,-0.00301000
-0.00120000,-0.00170000,0.09520000,0.00322000,-0.00406000,-0.00210000
-0.00340000,0.00240000,0.09330000,0.01253000,0.00196000,0.00168000
-0.00870000,0.00000000,0.10440000,0.01421000,0.00189000,0.00224000
-0.01360000,-0.00350000,0.11090000,0.00329000,0.00238000,0.00189000
-0.01360000,-0.00350000,0.11090000,0.00329000,0.00238000,0.00189000
-0.00900000,-0.00210000,0.10240000,-0.00924000,-0.00413000,0.00042000
-0.00100000,-0.00050000,0.09610000,-0.00791000,-0.00903000,-0.00084000
-0.00130000,0.00050000,0.09260000,0.00238000,-0.00707000,0.00168000
-0.00710000,0.00000000,0.10280000,0.00994000,-0.00203000,0.00518000
-0.01170000,-0.00080000,0.10650000,0.00595000,0.00077000,0.00693000
-0.01170000,-0.00080000,0.10650000,-0.00217000,-0.00301000,0.00476000
-0.01110000,-0.00160000,0.10300000,-0.00217000,-0.00301000,0.00476000
-0.00700000,-0.00130000,0.10070000,-0.00315000,-0.00588000,0.00203000
-0.00720000,-0.00240000,0.10200000,0.00126000,-0.00497000,0.00252000
-0.00920000,-0.00210000,0.10180000,0.00217000,-0.00406000,0.00217000
-0.00690000,-0.00220000,0.10040000,0.00070000,-0.00329000,0.00112000
-0.00830000,-0.00150000,0.10060000,0.00217000,-0.00343000,0.00063000
-0.00830000,-0.00150000,0.10060000,0.00217000,-0.00343000,0.00063000
-0.00830000,-0.00220000,0.10160000,0.00259000,-0.00420000,0.00000000
-0.00670000,-0.00220000,0.10160000,0.00259000,-0.00420000,0.00000000
-0.00730000,-0.00160000,0.10040000,0.00049000,-0.00336000,0.00028000
-0.00730000,-0.00160000,0.10040000,0.00049000,-0.00336000,0.00028000
-0.00860000,-0.00140000,0.10030000,0.00042000,-0.00252000,0.00028000
-0.00890000,-0.00220000,0.10140000,0.00133000,-0.00273000,-0.00028000
-0.00760000,-0.00140000,0.10260000,0.00021000,-0.00315000,-0.00077000
-0.00690000,-0.00070000,0.10310000,-0.00161000,-0.00357000,-0.00112000
-0.00690000,-0.00070000,0.09990000,-0.00287000,-0.00399000,-0.00154000
-0.00670000,-0.00180000,0.09990000,-0.00287000,-0.00399000,-0.00154000
-0.00670000,-0.00200000,0.09790000,-0.00245000,-0.00392000,-0.00161000
-0.00640000,-0.00340000,0.09880000,-0.00049000,-0.00329000,-0.00140000
-0.00730000,-0.00240000,0.10870000,0.00112000,-0.00182000,-0.00056000
-0.00820000,-0.00070000,0.11370000,-0.00168000,-0.00469000,-0.00049000
-0.00550000,-0.00250000,0.10350000,-0.00567000,-0.01022000,-0.00098000
-0.00550000,-0.00250000,0.10350000,-0.00567000,-0.01022000,-0.00098000
-0.00110000,-0.00330000,0.08870000,-0.00490000,-0.01120000,-0.00056000
0.00020000,-0.00580000,0.09320000,0.00126000,-0.00567000,0.00147000
-0.00540000,-0.00330000,0.10970000,0.00231000,0.00308000,0.00427000
-0.01200000,0.00250000,0.11690000,-0.00399000,0.00168000,0.00476000
-0.01080000,0.00160000,0.10360000,-0.01113000,-0.00833000,-0.00224000
-0.01080000,0.00160000,0.10360000,-0.01113000,-0.00833000,-0.00224000
0.00530000,-0.00590000,0.06550000,-0.01218000,-0.01253000,-0.00581000
-0.00200000,-0.00950000,0.08790000,0.00469000,-0.00063000,0.00357000
-0.01960000,0.00530000,0.14020000,0.00917000,0.07455000,0.00917000
-0.02750000,0.00450000,0.09120000,-0.01491000,0.06265000,0.00903000
-0.01670000,-0.00400000,0.07660000,-0.01449000,-0.02331000,-0.00511000
-0.01670000,-0.00400000,0.07660000,-0.01449000,-0.02331000,-0.00511000
0.00060000,-0.01240000,0.10230000,0.00658000,-0.00637000,-0.01106000
-0.00820000,-0.00930000,0.09810000,0.00609000,0.02233000,-0.00112000
-0.02300000,-0.00590000,0.10220000,-0.00133000,0.00693000,-0.00056000
-0.01710000,-0.00410000,0.10560000,-0.00119000,0.00014000,-0.00560000
-0.00700000,-0.00300000,0.10580000,-0.00238000,-0.01386000,-0.00567000
-0.00480000,-0.00340000,0.10080000,-0.00392000,-0.01946000,-0.00238000
-0.00970000,-0.00360000,0.10110000,-0.00266000,-0.02149000,0.00210000
-0.00980000,-0.00240000,0.10150000,0.00098000,-0.02597000,0.00308000
-0.00980000,-0.00240000,0.10150000,0.00098000,-0.02597000,0.00308000
-0.00580000,-0.00060000,0.10330000,0.00952000,-0.01995000,0.00518000
-0.00760000,-0.00280000,0.10510000,0.01484000,-0.01351000,0.00539000
-0.00910000,-0.00420000,0.10320000,0.00924000,-0.01379000,0.00217000
-0.00960000,-0.00360000,0.10190000,0.00532000,-0.01113000,0.00119000
-0.01210000,-0.00430000,0.11000000,0.00539000,-0.00875000,0.00084000
-0.01210000,-0.00430000,0.11000000,0.00539000,-0.00693000,-0.00168000
-0.01120000,-0.00860000,0.09780000,0.00063000,-0.00693000,-0.00168000
-0.00460000,-0.00800000,0.09420000,-0.00175000,-0.01071000,-0.00077000
0.00130000,-0.00060000,0.09060000,0.00609000,-0.00336000,0.00105000
0.00000000,0.00050000,0.09230000,0.01855000,0.00434000,0.00406000
-0.00760000,-0.00100000,0.10620000,0.01939000,0.01029000,0.00469000
-0.00760000,-0.00100000,0.10620000,0.01939000,0.01029000,0.00420000
-0.01640000,-0.00160000,0.11570000,0.00511000,0.01141000,0.00420000
-0.01240000,-0.00150000,0.10280000,-0.01190000,-0.00602000,0.00070000
0.00040000,-0.00230000,0.09390000,-0.01120000,-0.01239000,-0.00266000
0.00030000,-0.00110000,0.09780000,0.00000000,-0.00490000,0.00140000
-0.01140000,0.00140000,0.10440000,0.00693000,-0.00035000,0.00574000
-0.01140000,0.00140000,0.10440000,0.00483000,-0.00350000,0.00378000
-0.01440000,0.00200000,0.10250000,0.00483000,-0.00350000,0.00378000
-0.00640000,0.00000000,0.10050000,-0.00070000,-0.00707000,0.00070000
-0.00790000,-0.00050000,0.10180000,0.00021000,-0.00273000,0.00098000
-0.00720000,-0.00310000,0.09940000,-0.00084000,-0.00406000,0.00063000
-0.00630000,-0.00290000,0.09930000,-0.00035000,-0.00336000,0.00056000
-0.00630000,-0.00290000,0.09930000,-0.00035000,-0.00336000,0.00056000
-0.00780000,-0.00180000,0.10300000,0.00091000,-0.00252000,0.00091000
-0.00880000,-0.00160000,0.10360000,0.00035000,-0.00343000,0.00084000
-0.00880000,-0.00160000,0.10360000,0.00035000,-0.00343000,0.00084000
-0.00780000,-0.00140000,0.10420000,-0.00189000,-0.00455000,-0.00028000
-0.00780000,-0.00140000,0.10420000,-0.00189000,-0.00455000,-0.00028000
-0.00690000,-0.00140000,0.10050000,-0.00420000,-0.00553000,-0.00098000
-0.00590000,-0.00300000,0.09700000,-0.00371000,-0.00595000,-0.00077000
-0.00690000,-0.00340000,0.10100000,-0.00112000,-0.00392000,0.00000000
-0.00790000,-0.00090000,0.10340000,-0.00014000,-0.00224000,0.00021000
-0.00770000,0.00120000,0.10460000,0.00098000,-0.00364000,-0.00007000
-0.00720000,-0.00080000,0.10790000,-0.00035000,-0.00588000,-0.00091000
-0.00720000,-0.00080000,0.10790000,-0.00035000,-0.00588000,-0.00091000
-0.00340000,-0.00370000,0.09510000,-0.00588000,-0.00602000,-0.00091000
-0.00170000,-0.00430000,0.08820000,-0.00315000,-0.00266000,0.00070000
-0.00610000,-0.00190000,0.09880000,0.00742000,0.00329000,-0.00028000
-0.01330000,-0.00090000,0.11940000,0.01127000,0.00399000,-0.00021000
-0.01310000,0.00030000,0.11900000,-0.00147000,-0.00392000,0.00091000
-0.01310000,0.00030000,0.11900000,-0.00147000,-0.00392000,0.00091000
-0.00340000,-0.00010000,0.09920000,-0.01666000,-0.01386000,-0.00301000
0.00590000,-0.00370000,0.06550000,-0.01414000,-0.01428000,-0.00399000
-0.01040000,-0.00900000,0.12480000,0.00322000,0.01687000,0.00056000
-0.01670000,0.01320000,0.09160000,-0.00308000,0.06461000,0.00637000
-0.01980000,0.00220000,0.09270000,-0.00133000,0.02779000,0.00497000
-0.01980000,0.00220000,0.09270000,-0.00133000,0.02779000,-0.00868000
-0.00850000,-0.01180000,0.09320000,-0.00140000,-0.00112000,-0.00868000
-0.00830000,-0.01330000,0.10490000,-0.00700000,0.01603000,-0.00651000
-0.01580000,-0.00450000,0.09380000,-0.01162000,0.01316000,0.00077000
-0.01630000,-0.00580000,0.09710000,-0.00196000,0.00392000,-0.00084000
-0.00870000,-0.00630000,0.08930000,0.00728000,-0.00021000,-0.00434000
-0.00800000,-0.00180000,0.10550000,0.01183000,-0.00154000,-0.00161000
-0.00800000,-0.00180000,0.10550000,0.01183000,-0.00154000,-0.00161000
-0.01280000,0.00080000,0.10460000,0.00637000,-0.00042000,0.00224000
-0.01430000,-0.00250000,0.10380000,0.00070000,-0.01120000,0.00196000
-0.01140000,-0.00450000,0.10760000,-0.00336000,-0.01939000,0.00063000
-0.00810000,-0.00420000,0.10240000,-0.00595000,-0.02527000,0.00196000
-0.00700000,-0.00390000,0.09820000,-0.00189000,-0.02870000,0.00679000
-0.00700000,-0.00390000,0.09820000,-0.00189000,-0.02870000,0.00679000
-0.00660000,-0.00260000,0.09960000,0.00532000,-0.02485000,0.00875000
-0.00990000,-0.00430000,0.10330000,0.00924000,-0.01547000,0.00658000
-0.01400000,-0.00590000,0.10790000,0.00532000,-0.01253000,0.00301000
-0.01260000,-0.00610000,0.10680000,-0.00259000,-0.01407000,-0.00021000
-0.01260000,-0.00610000,0.10280000,-0.00553000,-0.01274000,-0.00175000
-0.00720000,-0.00610000,0.10280000,-0.00553000,-0.01274000,-0.00175000
-0.00690000,-0.00690000,0.10370000,-0.00350000,-0.00952000,-0.00105000
-0.00430000,-0.00680000,0.09330000,-0.00105000,-0.00798000,-0.00154000
-0.00270000,-0.00250000,0.09430000,0.00476000,-0.00602000,-0.00077000
-0.00630000,-0.00130000,0.09820000,0.00931000,0.00112000,0.00105000
-0.00870000,-0.00120000,0.09860000,0.00854000,0.00196000,0.00231000
-0.00870000,-0.00120000,0.09860000,0.00854000,0.00196000,0.00231000
-0.00640000,-0.00130000,0.10510000,0.00294000,-0.00301000,0.00049000
-0.00490000,-0.00030000,0.10330000,-0.00245000,-0.00525000,0.00028000
-0.00420000,-0.00040000,0.09780000,-0.00378000,-0.00574000,0.00140000
-0.00480000,-0.00250000,0.09660000,-0.00119000,-0.00539000,0.00294000
-0.00780000,-0.00250000,0.10210000,0.00182000,-0.00049000,0.00469000
-0.00780000,-0.00250000,0.10210000,0.00182000,-0.00049000,0.00469000
-0.01090000,-0.00180000,0.10550000,0.00154000,0.00161000,0.00532000
-0.00580000,-0.00330000,0.10130000,-0.00021000,-0.00434000,0.00091000
-0.00710000,-0.00390000,0.10150000,0.00119000,-0.00322000,0.00133000
-0.00790000,-0.00330000,0.10130000,0.00007000,-0.00301000,0.00098000
-0.00790000,-0.00330000,0.10130000,0.00007000,-0.00301000,0.00098000
-0.00770000,-0.00290000,0.10060000,-0.00021000,-0.00266000,0.00028000
-0.00770000,-0.00290000,0.10060000,-0.00021000,-0.00266000,0.00014000
-0.00650000,-0.00280000,0.10000000,0.00098000,-0.00301000,0.00014000
-0.00540000,-0.00270000,0.10060000,0.00238000,-0.00252000,0.00049000
-0.00720000,-0.00220000,0.10280000,0.00287000,-0.00154000,0.00098000
-0.00940000,-0.00280000,0.10240000,0.00119000,-0.00196000,0.00077000
-0.00940000,-0.00280000,0.10240000,0.00119000,-0.00196000,0.00077000
-0.00800000,-0.00290000,0.10130000,-0.00049000,-0.00294000,-0.00028000
-0.00540000,-0.00280000,0.10170000,-0.00049000,-0.00350000,-0.00084000
-0.00530000,-0.00320000,0.10210000,-0.00014000,-0.00329000,-0.00014000
-0.00720000,-0.00330000,0.10090000,-0.00014000,-0.00343000,0.00042000
-0.00720000,-0.00290000,0.10270000,0.00028000,-0.00427000,0.00014000
-0.00720000,-0.00290000,0.10270000,0.00028000,-0.00427000,0.00014000
-0.00510000,-0.00330000,0.10030000,-0.00021000,-0.00609000,-0.00007000
-0.00320000,-0.00370000,0.10060000,0.00070000,-0.00644000,0.00056000
-0.00350000,-0.00470000,0.09640000,0.00266000,-0.00483000,0.00196000
-0.00380000,-0.00480000,0.10250000,0.00518000,-0.00196000,0.00294000
-0.00380000,-0.00480000,0.10250000,0.00280000,0.00105000,0.00140000
-0.00460000,-0.00010000,0.11140000,0.00280000,0.00105000,0.00140000
-0.01020000,0.00030000,0.11530000,-0.00679000,-0.00070000,-0.00448000
-0.00360000,-0.00590000,0.07960000,-0.01575000,0.00434000,-0.00119000
0.00180000,-0.00350000,0.07580000,-0.00378000,0.01337000,0.00658000
-0.02530000,0.00700000,0.15550000,0.00903000,0.05782000,0.01029000
-0.02510000,0.00420000,0.07310000,-0.01344000,0.06734000,0.00574000
-0.02510000,0.00420000,0.07310000,-0.01344000,0.06734000,0.00574000
-0.01650000,-0.01070000,0.07430000,-0.00854000,-0.01925000,-0.00532000
-0.00510000,-0.01040000,0.11180000,0.00266000,-0.01463000,-0.01113000
-0.00890000,-0.00820000,0.08000000,-0.00126000,0.01862000,-0.00364000
-0.02160000,-0.00790000,0.11080000,0.00189000,-0.00308000,-0.00175000
-0.01280000,-0.00420000,0.09990000,0.00105000,-0.00588000,-0.00609000
-0.00580000,-0.00340000,0.11110000,0.00427000,-0.01988000,-0.00175000
-0.00580000,-0.00340000,0.11110000,0.00427000,-0.01988000,-0.00175000
-0.00740000,-0.00470000,0.11110000,0.00175000,-0.02107000,0.00574000
-0.01230000,-0.00380000,0.10780000,-0.00364000,-0.02422000,0.00805000
-0.01030000,-0.00340000,0.10020000,-0.00322000,-0.02947000,0.00336000
-0.00650000,-0.00230000,0.09820000,0.01099000,-0.01666000,0.00049000
-0.01140000,-0.00360000,0.10960000,0.01484000,-0.01211000,0.00126000
-0.01140000,-0.00360000,0.10960000,0.01484000,-0.01211000,0.00126000
-0.00490000,-0.00840000,0.09010000,0.00364000,-0.01484000,-0.00105000
0.00360000,-0.00370000,0.09660000,0.00357000,-0.00553000,-0.00028000
-0.00210000,-0.00460000,0.09860000,0.00588000,0.00392000,0.00329000
-0.01050000,-0.00420000,0.10120000,0.00770000,0.00266000,0.00322000
-0.01290000,-0.00530000,0.10100000,0.00875000,0.00350000,0.00357000
-0.01290000,-0.00530000,0.10100000,0.00875000,0.00350000,0.00357000
-0.00800000,-0.00440000,0.10420000,0.00147000,-0.00056000,0.00056000
-0.00440000,-0.00190000,0.09850000,-0.00406000,-0.00420000,0.00056000
-0.00780000,-0.00160000,0.10370000,0.00168000,-0.00224000,0.00287000
-0.01100000,-0.00300000,0.09460000,0.00434000,-0.00343000,0.00308000
-0.01100000,-0.00300000,0.09460000,0.00434000,-0.00343000,0.00308000
-0.00970000,-0.00230000,0.10170000,0.00455000,-0.00392000,0.00168000
-0.00880000,-0.00210000,0.10510000,0.00021000,-0.00238000,0.00098000
-0.01090000,-0.00260000,0.10640000,-0.00420000,-0.00224000,0.00091000
-0.01060000,0.00000000,0.10340000,-0.00539000,-0.00553000,-0.00056000
-0.00660000,-0.00030000,0.10150000,-0.00371000,-0.00896000,-0.00238000
-0.00660000,-0.00030000,0.10150000,-0.00273000,-0.00721000,-0.00140000
-0.00630000,-0.00120000,0.10020000,-0.00273000,-0.00721000,-0.00140000
-0.00720000,-0.00190000,0.10140000,0.00063000,-0.00357000,0.00105000
-0.00720000,-0.00190000,0.10140000,0.00063000,-0.00357000,0.00105000
-0.00750000,-0.00220000,0.10210000,0.00035000,-0.00343000,0.00105000
-0.00730000,-0.00320000,0.10200000,-0.00077000,-0.00350000,0.00084000
-0.00730000,-0.00320000,0.10200000,-0.00077000,-0.00350000,0.00084000
-0.00720000,-0.00290000,0.10090000,-0.00119000,-0.00343000,0.00098000
-0.00720000,-0.00290000,0.10090000,0.00042000,-0.00350000,0.00091000
-0.00720000,-0.00210000,0.10010000,0.00042000,-0.00350000,0.00091000
-0.00720000,-0.00210000,0.10150000,0.00182000,-0.00385000,0.00098000
-0.00810000,-0.00200000,0.10220000,0.00098000,-0.00378000,0.00105000
-0.00830000,-0.00220000,0.10050000,-0.00021000,-0.00392000,0.00070000
-0.00730000,-0.00270000,0.09940000,0.00000000,-0.00455000,0.00028000
-0.00730000,-0.00270000,0.10080000,0.00056000,-0.00413000,-0.00007000
-0.00610000,-0.00310000,0.10250000,0.00049000,-0.00350000,0.00042000
-0.00720000,-0.00350000,0.10280000,0.00014000,-0.00392000,0.00063000
-0.00720000,-0.00350000,0.10280000,-0.00028000,-0.00532000,0.00056000
-0.00730000,-0.00380000,0.10160000,-0.00028000,-0.00532000,0.00056000
-0.00650000,-0.00350000,0.10180000,-0.00070000,-0.00609000,0.00049000
-0.00350000,-0.00230000,0.09760000,-0.00056000,-0.00581000,0.00063000
-0.00390000,-0.00240000,0.10030000,0.00266000,-0.00420000,0.00203000
-0.00700000,-0.00430000,0.10950000,0.00196000,-0.00238000,0.00343000
-0.00580000,-0.00430000,0.11370000,-0.00651000,-0.00322000,0.00210000
-0.00580000,-0.00430000,0.11370000,-0.00651000,-0.00322000,-0.00420000
-0.00330000,0.00000000,0.10520000,-0.01372000,-0.00483000,-0.00420000
0.00190000,0.00020000,0.06250000,-0.01211000,-0.00336000,-0.00399000
0.00900000,-0.00620000,0.06680000,0.00931000,0.00462000,0.00525000
-0.03690000,-0.00240000,0.17750000,0.01204000,0.07063000,0.01281000
-0.03400000,0.00710000,0.05470000,-0.04249000,0.09184000,0.00896000
-0.03400000,-0.01170000,0.06540000,-0.02296000,-0.02205000,0.00140000
-0.02390000,-0.01170000,0.06540000,-0.02296000,-0.02205000,0.00140000
-0.00270000,-0.01090000,0.12140000,-0.00574000,-0.04613000,-0.01281000
0.00710000,-0.00290000,0.06250000,-0.00728000,-0.00042000,-0.00847000
-0.01230000,-0.00300000,0.11650000,0.01253000,-0.00938000,0.00427000
-0.01970000,-0.00270000,0.09680000,0.01617000,-0.00476000,0.00490000
-0.01280000,-0.00260000,0.11590000,0.01470000,-0.02345000,-0.00014000
-0.01280000,-0.00260000,0.11590000,0.01470000,-0.02345000,-0.00245000
-0.01050000,-0.00490000,0.11710000,0.00525000,-0.02051000,-0.00245000
-0.01380000,-0.00540000,0.11020000,-0.00833000,-0.02933000,-0.00644000
-0.01230000,-0.00910000,0.10450000,-0.00756000,-0.02149000,-0.00854000
0.00150000,-0.01330000,0.08200000,-0.00350000,-0.02072000,-0.00749000
0.01510000,-0.00160000,0.07990000,0.00861000,-0.00938000,-0.00133000
0.01510000,-0.00160000,0.07990000,0.00861000,-0.00938000,0.00707000
0.00920000,-0.00190000,0.08460000,0.02527000,0.00476000,0.00707000
-0.01000000,-0.00400000,0.11620000,0.03031000,0.01876000,0.00917000
-0.02770000,-0.00400000,0.10540000,0.01561000,0.01764000,0.01190000
-0.01820000,-0.00150000,0.10910000,0.00245000,-0.00602000,0.00175000
-0.01820000,-0.00150000,0.10910000,0.00245000,-0.00602000,0.00175000
-0.00110000,-0.00660000,0.10910000,-0.00189000,-0.00994000,-0.00504000
-0.00180000,-0.00710000,0.09660000,-0.00588000,-0.00945000,-0.00021000
-0.00770000,-0.00080000,0.09410000,-0.00042000,-0.00287000,0.00133000
-0.00950000,0.00270000,0.10070000,0.01057000,-0.00168000,0.00119000
-0.00970000,-0.00040000,0.10670000,0.01232000,-0.00462000,0.00035000
-0.00900000,-0.00090000,0.10280000,0.00329000,-0.00406000,-0.00308000
-0.00900000,-0.00090000,0.10280000,0.00329000,-0.00406000,-0.00308000
-0.00860000,0.00140000,0.09940000,-0.00091000,-0.00448000,-0.00175000
-0.00740000,-0.00070000,0.09910000,0.00140000,-0.00490000,0.00042000
-0.00710000,0.00000000,0.10150000,0.00350000,-0.00294000,-0.00007000
-0.00950000,-0.00010000,0.10430000,0.00392000,-0.00343000,0.00028000
-0.00940000,-0.00210000,0.10080000,0.00161000,-0.00539000,-0.00049000
-0.00940000,-0.00210000,0.10080000,0.00161000,-0.00539000,-0.00161000
-0.00860000,-0.00050000,0.10110000,-0.00021000,-0.00336000,0.00070000
-0.00830000,-0.00040000,0.10010000,0.00035000,-0.00336000,0.00049000
-0.00880000,-0.00010000,0.10080000,0.00035000,-0.00336000,0.00049000
-0.00810000,0.00020000,0.09950000,0.00035000,-0.00392000,0.00007000
-0.00660000,0.00100000,0.10070000,0.00091000,-0.00336000,-0.00007000
-0.00660000,0.00100000,0.10070000,0.00091000,-0.00336000,-0.00007000
-0.00680000,-0.00050000,0.10310000,0.00063000,-0.00308000,0.00070000
-0.00960000,-0.00020000,0.10280000,-0.00091000,-0.00287000,0.00133000
-0.00960000,-0.00020000,0.10280000,-0.00091000,-0.00287000,0.00133000
-0.00910000,0.00020000,0.10070000,-0.00168000,-0.00427000,0.00007000
-0.00620000,0.00040000,0.09950000,-0.00063000,-0.00483000,-0.00056000
-0.00590000,0.00060000,0.10110000,0.00063000,-0.00378000,0.00014000
-0.00740000,-0.00010000,0.10280000,0.00014000,-0.00301000,0.00098000
-0.00850000,-0.00020000,0.10090000,-0.00098000,-0.00322000,0.00112000
-0.00850000,-0.00020000,0.10090000,-0.00098000,-0.00322000,0.00112000
-0.00790000,-0.00020000,0.10070000,0.00007000,-0.00343000,0.00056000
-0.00820000,-0.00010000,0.10150000,0.00140000,-0.00350000,0.00056000
-0.00860000,0.00060000,0.10170000,0.00063000,-0.00357000,0.00028000
-0.00780000,0.00080000,0.10100000,-0.00098000,-0.00392000,-0.00014000
-0.00730000,0.00000000,0.10120000,-0.00154000,-0.00399000,-0.00014000
-0.00730000,0.00000000,0.10120000,-0.00119000,-0.00336000,0.00014000
-0.00800000,0.00000000,0.10040000,-0.00119000,-0.00336000,0.00014000
-0.00740000,-0.00040000,0.10080000,-0.00028000,-0.00357000,-0.00014000
-0.00450000,-0.00010000,0.10340000,0.00007000,-0.00357000,-0.00035000
-0.00340000,-0.00050000,0.10490000,-0.00014000,-0.00469000,0.00021000
-0.00600000,0.00260000,0.12280000,-0.00273000,-0.00511000,0.00056000
-0.00600000,0.00260000,0.08660000,-0.01477000,-0.00847000,-0.00217000
-0.00430000,0.00380000,0.08660000,-0.01477000,-0.00847000,-0.00217000
0.00180000,-0.00420000,0.06430000,-0.01358000,-0.01022000,-0.00182000
0.00190000,-0.00440000,0.06460000,0.00154000,0.00686000,0.00413000
-0.02940000,-0.00980000,0.17550000,0.01008000,0.04466000,0.00686000
-0.03390000,0.01920000,0.10060000,-0.03815000,0.08358000,0.00182000
-0.02430000,-0.00770000,0.05660000,-0.03248000,0.00735000,0.00217000
-0.02430000,-0.00770000,0.05660000,-0.03248000,0.00735000,0.00217000
-0.00250000,-0.01480000,0.10200000,-0.00826000,-0.04949000,-0.01141000
0.00910000,-0.00920000,0.08750000,-0.01568000,0.00175000,-0.01106000
-0.01370000,0.00280000,0.09080000,-0.00413000,0.00896000,0.00777000
-0.02190000,-0.00300000,0.09840000,0.01554000,0.00112000,0.00546000
-0.02190000,-0.00300000,0.09840000,0.01554000,0.00112000,-0.00385000
-0.01060000,-0.00140000,0.10570000,0.01722000,-0.01113000,-0.00385000
-0.00300000,-0.00140000,0.10630000,0.00854000,-0.02268000,0.00161000
-0.01100000,-0.00640000,0.11710000,0.00126000,-0.01771000,0.01127000
-0.01950000,-0.00650000,0.10590000,-0.00224000,-0.02170000,0.00714000
-0.01610000,-0.00040000,0.10020000,0.00826000,-0.02184000,-0.00259000
-0.01610000,-0.00040000,0.10750000,0.01561000,-0.01610000,-0.00518000
-0.01090000,-0.00750000,0.10750000,0.01561000,-0.01610000,-0.00518000
0.00730000,-0.00790000,0.09300000,0.00035000,-0.01904000,-0.00665000
0.01200000,0.00260000,0.07290000,0.00441000,-0.00917000,0.00147000
-0.00030000,-0.00020000,0.10800000,0.02485000,0.00763000,0.00308000
-0.01830000,-0.00570000,0.11000000,0.02338000,0.01470000,0.00469000
-0.02360000,-0.00160000,0.11000000,0.00728000,0.00623000,0.00476000
-0.02360000,-0.00160000,0.11000000,0.00728000,0.00623000,0.00476000
-0.01000000,-0.00330000,0.10400000,-0.00868000,-0.01148000,-0.00294000
0.00170000,0.00010000,0.09580000,-0.01127000,-0.01141000,-0.00672000
-0.00290000,0.00550000,0.09640000,0.00126000,-0.00728000,-0.00070000
-0.00980000,0.00250000,0.09770000,0.01127000,-0.00917000,0.00287000
-0.01050000,0.00150000,0.09650000,0.00861000,-0.00791000,0.00098000
-0.01050000,0.00150000,0.09650000,0.00399000,-0.00455000,-0.00140000
-0.00520000,0.00280000,0.09400000,0.00399000,-0.00455000,-0.00140000
-0.00800000,0.00210000,0.10190000,0.00679000,-0.00084000,0.00343000
-0.00660000,-0.00040000,0.10190000,0.00007000,-0.00287000,-0.00035000
-0.00630000,0.00000000,0.10070000,0.00098000,-0.00399000,0.00035000
-0.00590000,0.00000000,0.10170000,0.00028000,-0.00399000,0.00098000
-0.00590000,0.00000000,0.10170000,0.00028000,-0.00399000,0.00098000
-0.00690000,0.00030000,0.10020000,-0.00084000,-0.00371000,0.00133000
-0.00690000,0.00030000,0.10020000,-0.00084000,-0.00371000,0.00133000
-0.00730000,-0.00060000,0.09880000,0.00007000,-0.00392000,0.00154000
-0.00740000,-0.00070000,0.10120000,0.00154000,-0.00364000,0.00154000
-0.00830000,-0.00030000,0.10210000,0.00182000,-0.00329000,0.00161000
-0.00830000,-0.00090000,0.10090000,0.00084000,-0.00392000,0.00105000
-0.00840000,-0.00090000,0.10090000,0.00084000,-0.00392000,0.00105000
-0.00710000,-0.00100000,0.10080000,-0.00035000,-0.00399000,0.00056000
-0.00660000,-0.00060000,0.10100000,-0.00049000,-0.00308000,0.00042000
-0.00660000,0.00000000,0.10170000,0.00028000,-0.00259000,0.00056000
-0.00680000,0.00000000,0.10130000,0.00084000,-0.00252000,0.00063000
-0.00750000,0.00000000,0.10160000,0.00112000,-0.00259000,0.00084000
-0.00750000,0.00000000,0.10160000,0.00112000,-0.00259000,0.00084000
-0.00780000,0.00010000,0.10260000,0.00098000,-0.00294000,0.00098000
-0.00730000,0.00020000,0.10220000,0.00021000,-0.00371000,0.00077000
-0.00720000,-0.00030000,0.10290000,-0.00105000,-0.00448000,0.00049000
-0.00730000,-0.00100000,0.10200000,-0.00217000,-0.00504000,0.00056000
-0.00630000,-0.00160000,0.10120000,-0.00224000,-0.00539000,0.00042000
-0.00630000,-0.00160000,0.10120000,-0.00175000,-0.00560000,0.00056000
-0.00460000,-0.00170000,0.10060000,-0.00175000,-0.00560000,0.00056000
-0.00350000,-0.00130000,0.10130000,-0.00126000,-0.00588000,0.00105000
-0.00210000,0.00170000,0.11170000,-0.00133000,-0.00469000,0.00140000
-0.00280000,0.00620000,0.10490000,-0.00595000,-0.00630000,0.00007000
-0.00320000,-0.00300000,0.07750000,-0.01022000,-0.00770000,-0.00154000
0.00040000,-0.00480000,0.06560000,-0.00441000,0.00651000,0.00406000
0.00040000,-0.00480000,0.06560000,-0.00441000,0.00651000,0.00406000
-0.01750000,-0.00690000,0.14670000,0.00581000,0.03339000,0.00910000
-0.03880000,0.00880000,0.14360000,-0.02702000,0.06909000,0.00329000
-0.02030000,-0.00130000,0.06190000,-0.04753000,0.01645000,-0.00490000
0.00350000,-0.00710000,0.06020000,-0.01435000,-0.04704000,-0.01036000
0.00950000,-0.00910000,0.12260000,0.01001000,-0.00294000,-0.00770000
-0.01070000,-0.00140000,0.07340000,0.00700000,0.04193000,0.00847000
-0.03150000,-0.00350000,0.11570000,0.01757000,0.00693000,0.00686000
-0.01250000,-0.00020000,0.09570000,0.01141000,-0.00105000,-0.00483000
-0.01250000,-0.00020000,0.09570000,0.01141000,-0.00105000,-0.00483000
-0.00270000,0.00150000,0.10550000,0.00686000,-0.01939000,-0.00084000
-0.00470000,-0.00060000,0.09820000,0.00406000,-0.01932000,0.00700000
-0.01220000,-0.00120000,0.10230000,0.00707000,-0.01834000,0.01134000
-0.01180000,-0.00180000,0.09990000,0.01253000,-0.02240000,0.00875000
-0.00970000,-0.00480000,0.10940000,0.01659000,-0.01911000,0.00441000
-0.00970000,-0.00480000,0.10840000,0.01239000,-0.01036000,0.00287000
-0.01080000,-0.00200000,0.10840000,0.01239000,-0.01036000,0.00287000
-0.01150000,-0.00400000,0.10430000,0.00854000,-0.00952000,0.00336000
-0.01260000,-0.00630000,0.10780000,0.00175000,-0.00903000,-0.00091000
-0.00850000,-0.00820000,0.09540000,-0.00427000,-0.00553000,-0.00385000
-0.00140000,-0.00370000,0.09810000,-0.00301000,-0.00714000,-0.00350000
-0.00180000,0.00010000,0.09530000,0.00406000,-0.00035000,0.00000000
-0.00180000,0.00010000,0.09530000,0.00966000,0.00238000,0.00028000
-0.00700000,0.00060000,0.10350000,0.00966000,0.00238000,0.00028000
-0.00950000,0.00020000,0.10180000,0.00595000,0.00049000,-0.00112000
-0.00680000,0.00000000,0.09860000,-0.00196000,-0.00441000,-0.00224000
-0.00360000,0.00220000,0.09870000,-0.00490000,-0.00539000,-0.00126000
-0.00360000,0.00270000,0.09160000,-0.00042000,-0.00308000,0.00147000
-0.00660000,0.00270000,0.10180000,0.00777000,0.00238000,0.00399000
-0.00660000,0.00270000,0.10180000,0.00777000,0.00238000,0.00399000
-0.01090000,0.00100000,0.11050000,0.00777000,0.00581000,0.00588000
-0.00860000,-0.00020000,0.10180000,-0.00007000,-0.00357000,0.00119000
-0.00890000,-0.00020000,0.10060000,-0.00119000,-0.00364000,0.00035000
-0.00890000,-0.00020000,0.10060000,-0.00119000,-0.00364000,0.00035000
-0.00860000,-0.00040000,0.09860000,-0.00063000,-0.00385000,-0.00021000
-0.00860000,-0.00040000,0.09860000,-0.00063000,-0.00385000,-0.00021000
-0.00800000,0.00060000,0.09990000,0.00133000,-0.00280000,-0.00028000
-0.00800000,0.00060000,0.09990000,0.00133000,-0.00280000,-0.00028000
-0.00820000,0.00140000,0.10190000,0.00210000,-0.00238000,-0.00035000
-0.00910000,0.00110000,0.10300000,0.00154000,-0.00301000,-0.00035000
-0.00910000,0.00110000,0.10440000,-0.00014000,-0.00357000,-0.00105000
-0.00990000,-0.00030000,0.10440000,-0.00014000,-0.00357000,-0.00105000
-0.00830000,-0.00120000,0.10160000,-0.00287000,-0.00469000,-0.00203000
-0.00630000,0.00000000,0.10010000,-0.00259000,-0.00525000,-0.00203000
-0.00670000,0.00000000,0.09950000,-0.00028000,-0.00483000,-0.00154000
-0.00730000,-0.00070000,0.10020000,0.00035000,-0.00420000,-0.00126000
-0.00650000,-0.00020000,0.10050000,-0.00049000,-0.00462000,-0.00084000
-0.00650000,-0.00020000,0.10050000,-0.00049000,-0.00462000,-0.00084000
-0.00550000,-0.00150000,0.10050000,-0.00035000,-0.00483000,-0.00063000
-0.00660000,-0.00230000,0.10190000,-0.00007000,-0.00448000,-0.00007000
-0.00940000,-0.00120000,0.10200000,-0.00056000,-0.00462000,0.00049000
-0.00730000,-0.00040000,0.10130000,-0.00098000,-0.00511000,-0.00014000
-0.00450000,-0.00020000,0.10500000,-0.00140000,-0.00595000,0.00007000
-0.00450000,-0.00020000,0.10500000,-0.00518000,-0.00609000,0.00063000
-0.00540000,-0.00100000,0.10720000,-0.00518000,-0.00609000,0.00063000
-0.00670000,-0.00210000,0.10380000,-0.01036000,-0.00728000,0.00133000
-0.00250000,-0.00390000,0.10180000,-0.01120000,-0.00700000,0.00147000
0.00040000,-0.00280000,0.09800000,-0.00917000,-0.00546000,0.00224000
-0.00160000,0.00190000,0.09290000,-0.00448000,-0.00231000,0.00126000
-0.00170000,0.00060000,0.07590000,0.00322000,0.00406000,0.00161000
-0.00170000,0.00060000,0.07590000,0.00322000,0.00406000,0.00161000
-0.00920000,-0.00590000,0.09940000,0.01260000,0.02170000,0.00742000
-0.03260000,0.00540000,0.13510000,0.00266000,0.05390000,0.00854000
-0.02360000,0.00990000,0.09870000,-0.02135000,0.04452000,-0.00168000
-0.02360000,0.00990000,0.09870000,-0.02128000,-0.00609000,-0.00854000
-0.00960000,-0.00900000,0.07980000,-0.02128000,-0.00609000,-0.00854000
-0.00560000,-0.01500000,0.10970000,-0.00609000,-0.00889000,-0.00812000
-0.01190000,-0.00710000,0.09110000,-0.00756000,0.01967000,-0.00189000
-0.01940000,-0.00090000,0.10120000,-0.00273000,0.00427000,-0.00028000
-0.01000000,-0.00320000,0.09860000,0.00154000,-0.00427000,-0.00469000
-0.01000000,-0.00320000,0.10320000,0.00182000,-0.00532000,-0.00329000
-0.00640000,-0.00190000,0.10320000,0.00182000,-0.00532000,-0.00329000
-0.01050000,-0.00210000,0.10000000,0.00042000,-0.00427000,-0.00014000
-0.01330000,-0.00150000,0.09890000,0.00140000,-0.00812000,0.00049000
-0.01050000,-0.00210000,0.10400000,0.00441000,-0.01281000,0.00049000
-0.00920000,-0.00210000,0.10200000,0.00280000,-0.01729000,0.00301000
-0.01040000,-0.00230000,0.10100000,0.00084000,-0.02387000,0.00518000
-0.01040000,-0.00230000,0.10100000,0.00084000,-0.02387000,0.00518000
-0.00910000,-0.00260000,0.09550000,0.00252000,-0.02569000,0.00476000
-0.00770000,-0.00360000,0.10020000,0.00805000,-0.02331000,0.00483000
-0.00900000,-0.00510000,0.10290000,0.01029000,-0.01316000,0.00336000
-0.01270000,-0.00430000,0.10780000,0.00882000,-0.00686000,0.00161000
-0.01260000,-0.00340000,0.10140000,0.00609000,-0.00903000,-0.00028000
-0.01260000,-0.00340000,0.10140000,0.00609000,-0.00903000,-0.00028000
-0.01040000,-0.00330000,0.10230000,0.00658000,-0.00777000,-0.00140000
-0.00690000,-0.00430000,0.08920000,0.00406000,-0.00273000,-0.00098000
-0.00140000,-0.00190000,0.09780000,0.00385000,0.00084000,-0.00147000
-0.00560000,-0.00340000,0.10500000,0.00385000,0.00686000,0.00154000
-0.01100000,-0.00410000,0.10740000,0.00028000,0.00350000,0.00168000
-0.01100000,-0.00410000,0.10740000,0.00028000,0.00350000,0.00168000
-0.00810000,-0.00250000,0.10250000,-0.00322000,-0.00511000,-0.00084000
-0.00930000,-0.00100000,0.10350000,0.00119000,-0.00252000,0.00119000
-0.00710000,-0.00200000,0.10040000,-0.00175000,-0.00434000,-0.00014000
-0.00660000,-0.00110000,0.10010000,-0.00021000,-0.00385000,0.00007000
-0.00660000,-0.00110000,0.10010000,0.00105000,-0.00322000,0.00042000
-0.00780000,-0.00120000,0.10020000,0.00105000,-0.00322000,0.00042000
-0.00890000,-0.00080000,0.10110000,0.00021000,-0.00252000,0.00028000
-0.00890000,-0.00080000,0.10110000,0.00021000,-0.00252000,0.00028000
-0.00770000,-0.00120000,0.10110000,-0.00119000,-0.00273000,-0.00035000
-0.00690000,-0.00210000,0.10190000,-0.00147000,-0.00266000,-0.00042000
-0.00790000,-0.00190000,0.10060000,-0.00098000,-0.00280000,-0.00007000
-0.00750000,-0.00140000,0.10000000,0.00070000,-0.00301000,-0.00021000
-0.00550000,-0.00170000,0.09970000,0.00168000,-0.00294000,-0.00035000
-0.00550000,-0.00170000,0.09970000,0.00168000,-0.00294000,-0.00035000
-0.00640000,-0.00200000,0.10230000,0.00126000,-0.00168000,0.00035000
-0.00900000,-0.00200000,0.10300000,0.00000000,-0.00168000,0.00063000
-0.00820000,-0.00300000,0.10330000,-0.00063000,-0.00420000,-0.00014000
-0.00590000,-0.00260000,0.10210000,-0.00112000,-0.00588000,-0.00042000
-0.00450000,-0.00210000,0.10240000,-0.00105000,-0.00637000,0.00028000
-0.00450000,-0.00210000,0.10240000,-0.00168000,-0.00637000,0.00091000
-0.00490000,-0.00210000,0.10520000,-0.00168000,-0.00637000,0.00091000
-0.00510000,-0.00170000,0.10750000,-0.00392000,-0.00714000,0.00105000
-0.00110000,-0.00230000,0.10600000,-0.00742000,-0.00665000,0.00147000
0.00010000,0.00180000,0.08420000,-0.00840000,-0.00686000,0.00259000
0.00150000,-0.00450000,0.06260000,0.00427000,0.00280000,0.00210000
0.00150000,-0.00450000,0.06260000,0.02226000,0.02583000,0.00840000
-0.00780000,-0.00970000,0.10230000,0.02226000,0.02583000,0.00840000
-0.04440000,0.00630000,0.17480000,0.00462000,0.07168000,0.01225000
-0.02930000,0.01230000,0.06710000,-0.03885000,0.05082000,0.00161000
-0.00470000,-0.01000000,0.05890000,-0.01442000,-0.03360000,-0.00882000
0.00890000,-0.01370000,0.10290000,0.00763000,-0.02947000,-0.01274000
-0.00410000,-0.00200000,0.08950000,0.00861000,0.03465000,0.00343000
-0.00410000,-0.00200000,0.08950000,0.01351000,0.01848000,0.01057000
-0.03120000,0.00480000,0.11450000,0.01351000,0.01848000,0.01057000
-0.02500000,-0.00140000,0.10220000,0.01120000,-0.01008000,-0.00322000
-0.00650000,-0.00890000,0.11120000,0.00567000,-0.02408000,-0.00966000
-0.00650000,-0.00890000,0.11120000,-0.00847000,-0.02380000,-0.00007000
-0.00300000,-0.00690000,0.11540000,-0.00847000,-0.02380000,-0.00007000
-0.01730000,-0.00600000,0.11240000,-0.01743000,-0.01918000,0.00854000
-0.02070000,-0.00240000,0.09950000,-0.00952000,-0.02429000,0.00210000
-0.01190000,-0.00670000,0.10240000,0.00910000,-0.02275000,-0.00728000
0.00990000,-0.00720000,0.08210000,0.00707000,-0.02520000,-0.01092000
0.00990000,0.01110000,0.08100000,0.01337000,-0.01008000,0.00098000
0.01830000,0.01110000,0.08100000,0.01337000,-0.01008000,0.00098000
-0.00010000,0.00220000,0.10810000,0.02863000,0.01435000,0.01134000
-0.02410000,-0.00560000,0.10940000,0.01680000,0.02184000,0.00889000
-0.02700000,-0.00550000,0.10660000,-0.00693000,-0.00196000,0.00259000
-0.00510000,-0.00210000,0.09640000,-0.01484000,-0.01876000,-0.00413000
0.00430000,-0.00150000,0.09420000,-0.00245000,-0.01225000,-0.00161000
0.00430000,-0.00150000,0.09420000,-0.00245000,-0.01225000,0.00287000
-0.00470000,0.00070000,0.09890000,0.00959000,-0.00210000,0.00287000
-0.01500000,0.00050000,0.10100000,0.01036000,0.00035000,0.00518000
-0.01350000,-0.00210000,0.10030000,0.00371000,-0.00252000,0.00182000
-0.00710000,-0.00060000,0.09850000,0.00000000,-0.00294000,-0.00203000
-0.00850000,0.00100000,0.10070000,0.00462000,-0.00098000,0.00035000
-0.01140000,0.00090000,0.10230000,0.00693000,-0.00112000,0.00126000
-0.01140000,0.00090000,0.10230000,0.00693000,-0.00112000,0.00126000
-0.01060000,0.00100000,0.10550000,0.00322000,-0.00112000,-0.00056000
-0.00970000,-0.00030000,0.10360000,-0.00098000,-0.00203000,-0.00063000
-0.00990000,-0.00080000,0.10300000,-0.00189000,-0.00224000,-0.00154000
-0.00940000,0.00050000,0.10160000,-0.00112000,-0.00322000,-0.00224000
-0.00690000,-0.00100000,0.10120000,0.00154000,-0.00301000,0.00070000
-0.00750000,-0.00040000,0.10230000,0.00077000,-0.00413000,0.00105000
-0.00860000,-0.00140000,0.10210000,-0.00042000,-0.00413000,0.00133000
-0.00860000,-0.00140000,0.10210000,-0.00042000,-0.00413000,0.00133000
-0.00850000,-0.00190000,0.10110000,-0.00189000,-0.00441000,0.00112000
-0.00870000,-0.00140000,0.10050000,-0.00119000,-0.00427000,0.00091000
-0.00870000,-0.00140000,0.10050000,-0.00119000,-0.00427000,0.00091000
-0.00850000,-0.00090000,0.10090000,0.00028000,-0.00441000,0.00035000
-0.00870000,0.00000000,0.10130000,0.00056000,-0.00427000,0.00014000
-0.00860000,0.00020000,0.10080000,-0.00042000,-0.00455000,-0.00014000
-0.00760000,-0.00040000,0.10070000,-0.00154000,-0.00427000,-0.00042000
-0.00760000,-0.00040000,0.10100000,-0.00238000,-0.00385000,-0.00035000
-0.00680000,-0.00110000,0.10100000,-0.00238000,-0.00385000,-0.00035000
-0.00690000,-0.00050000,0.10120000,-0.00091000,-0.00357000,0.00021000
-0.00780000,-0.00070000,0.10140000,0.00140000,-0.00434000,0.00007000
-0.00820000,-0.00270000,0.10000000,0.00042000,-0.00497000,-0.00014000
-0.00610000,-0.00470000,0.10290000,-0.00315000,-0.00399000,-0.00014000
-0.00390000,-0.00200000,0.10240000,-0.00525000,-0.00273000,0.00063000
-0.00390000,-0.00200000,0.10240000,-0.00525000,-0.00273000,0.00063000
-0.00320000,-0.00020000,0.11250000,-0.00245000,-0.00392000,0.00189000
-0.00180000,0.00250000,0.11080000,-0.00490000,-0.00497000,0.00084000
-0.00150000,0.00230000,0.07740000,-0.00833000,-0.00434000,-0.00035000
0.00510000,-0.00520000,0.05270000,0.00651000,0.00966000,0.00623000
-0.02490000,-0.00590000,0.15990000,0.02198000,0.03983000,0.01484000
-0.02490000,-0.00590000,0.15990000,0.02198000,0.03983000,0.01484000
-0.03310000,0.02010000,0.09840000,-0.02450000,0.09107000,0.00658000
-0.02430000,-0.00420000,0.04420000,-0.02107000,0.01127000,0.00385000
-0.00880000,-0.01280000,0.12140000,0.01127000,-0.04340000,-0.00896000
0.00130000,-0.00920000,0.07960000,-0.00441000,0.01456000,-0.00959000
-0.02230000,-0.00060000,0.11160000,-0.00133000,0.00728000,0.00518000
-0.02230000,-0.00060000,0.11160000,0.00196000,-0.00868000,-0.00063000
-0.02170000,-0.00050000,0.09640000,0.00196000,-0.00868000,-0.00063000
-0.01050000,-0.00280000,0.11080000,0.00798000,-0.02219000,-0.00490000
-0.00590000,-0.00420000,0.11360000,0.00091000,-0.02681000,0.00112000
-0.01470000,-0.00450000,0.11480000,-0.01232000,-0.02744000,0.00518000
-0.01850000,-0.00150000,0.10600000,-0.00525000,-0.02268000,-0.00035000
-0.01290000,-0.00960000,0.09640000,0.00861000,-0.02107000,-0.00819000
-0.01290000,-0.00960000,0.09640000,0.00861000,-0.02107000,-0.00819000
0.01040000,-0.00460000,0.08860000,0.00273000,-0.02457000,-0.01274000
0.01420000,0.00420000,0.06510000,0.01015000,-0.00728000,0.00147000
-0.00050000,0.00130000,0.11500000,0.02646000,0.01197000,0.00707000
-0.00050000,0.00130000,0.10640000,0.01722000,0.02345000,0.00910000
-0.02080000,-0.00490000,0.10640000,0.01722000,0.02345000,0.00910000
-0.02590000,0.00000000,0.10470000,0.00000000,-0.00140000,0.00686000
-0.00650000,-0.00490000,0.10860000,-0.00483000,-0.01155000,-0.00378000
-0.00290000,-0.00620000,0.10360000,-0.00763000,-0.00917000,-0.00231000
-0.00980000,0.00000000,0.09620000,-0.00749000,-0.00840000,0.00014000
-0.00980000,0.00000000,0.09670000,0.00105000,-0.00763000,-0.00203000
-0.00970000,0.00300000,0.09670000,0.00105000,-0.00763000,-0.00203000
-0.00640000,0.00170000,0.09820000,0.00567000,-0.00770000,-0.00490000
-0.00590000,0.00250000,0.09470000,0.00567000,-0.00504000,-0.00224000
-0.00660000,0.00200000,0.09860000,0.00546000,-0.00063000,0.00182000
-0.01060000,0.00150000,0.10470000,0.00266000,0.00413000,0.00210000
-0.01060000,0.00150000,0.10470000,0.00000000,0.00217000,0.00133000
-0.01290000,0.00040000,0.10490000,0.00000000,0.00217000,0.00133000
-0.01000000,-0.00070000,0.10110000,0.00056000,-0.00133000,-0.00021000
-0.00730000,0.00110000,0.10220000,0.00273000,-0.00238000,-0.00049000
-0.00870000,0.00040000,0.10270000,0.00196000,-0.00161000,0.00021000
-0.01090000,0.00090000,0.10440000,-0.00175000,-0.00070000,0.00007000
-0.01060000,0.00000000,0.10440000,-0.00350000,-0.00217000,-0.00077000
-0.00860000,-0.00070000,0.10150000,0.00105000,-0.00238000,0.00028000
-0.00710000,-0.00060000,0.10020000,0.00014000,-0.00343000,0.00021000
-0.00710000,-0.00060000,0.10020000,0.00056000,-0.00273000,0.00077000
-0.00800000,-0.00090000,0.10150000,0.00056000,-0.00273000,0.00077000
-0.00910000,-0.00100000,0.10080000,0.00000000,-0.00266000,0.00112000
-0.00910000,-0.00100000,0.10080000,0.00000000,-0.00266000,0.00112000
-0.00910000,-0.00120000,0.10080000,-0.00014000,-0.00322000,0.00056000
-0.00910000,-0.00120000,0.10080000,0.00007000,-0.00364000,0.00000000
-0.00870000,-0.00070000,0.10030000,0.00084000,-0.00322000,-0.00021000
-0.00830000,-0.00050000,0.10030000,0.00084000,-0.00322000,-0.00021000
-0.00840000,-0.00040000,0.10230000,-0.00203000,-0.00371000,0.00000000
-0.00840000,-0.00040000,0.10230000,-0.00224000,-0.00490000,0.00014000
-0.00800000,-0.00050000,0.10170000,-0.00224000,-0.00490000,0.00014000
-0.00760000,-0.00130000,0.10190000,-0.00049000,-0.00532000,-0.00007000
-0.00690000,-0.00190000,0.10200000,0.00028000,-0.00574000,-0.00021000
-0.00460000,-0.00190000,0.10140000,0.00007000,-0.00532000,0.00000000
-0.00200000,-0.00140000,0.09910000,0.00035000,-0.00483000,0.00112000
0.00100000,0.00340000,0.10930000,0.00140000,-0.00224000,0.00287000
0.00100000,0.00340000,0.10930000,0.00140000,-0.00224000,0.00287000
-0.00090000,0.00880000,0.09700000,-0.00119000,-0.00147000,0.00210000
-0.00300000,-0.01220000,0.07560000,-0.00007000,0.00518000,0.00392000
-0.01630000,-0.01110000,0.12370000,0.00126000,0.02583000,0.01120000
-0.04200000,0.00920000,0.15110000,-0.02779000,0.06398000,0.00357000
-0.01550000,0.01520000,0.03510000,-0.03969000,0.03661000,0.00392000
-0.01550000,0.01520000,0.03510000,0.01141000,-0.04515000,0.00581000
-0.00730000,-0.01320000,0.07870000,0.01141000,-0.04515000,0.00581000
-0.00040000,-0.00710000,0.10580000,0.01400000,-0.01428000,-0.00616000
-0.01440000,0.00400000,0.09370000,0.00434000,0.01372000,0.00588000
-0.02890000,-0.00600000,0.12060000,0.00847000,-0.01253000,0.00945000
-0.02800000,-0.01160000,0.12230000,-0.00420000,-0.01939000,-0.00693000
-0.02220000,-0.00110000,0.12980000,-0.01337000,-0.03038000,-0.01379000
-0.02220000,-0.00110000,0.12980000,-0.00763000,-0.03073000,-0.01120000
-0.01530000,-0.00770000,0.09750000,-0.00763000,-0.03073000,-0.01120000
0.01840000,-0.00340000,0.08790000,-0.00952000,-0.04067000,-0.01435000
0.02910000,0.00960000,0.02330000,0.00357000,-0.01946000,-0.00189000
0.02060000,0.01020000,0.09540000,0.04515000,0.01841000,0.00637000
-0.03040000,-0.00920000,0.13120000,0.04648000,0.06433000,0.01435000
-0.03040000,-0.00920000,0.13120000,0.00322000,0.01785000,0.00196000
-0.05530000,-0.00970000,0.10980000,0.00322000,0.01785000,0.00196000
-0.01890000,-0.00720000,0.11360000,-0.01764000,-0.02681000,-0.01519000
0.00700000,-0.01280000,0.10470000,-0.02401000,-0.03157000,-0.00987000
0.00410000,-0.00650000,0.09150000,-0.01925000,-0.02310000,-0.00245000
-0.00780000,-0.00190000,0.09580000,0.00511000,-0.00133000,-0.00035000
-0.00780000,-0.00190000,0.09580000,0.00511000,-0.00133000,-0.00035000
-0.01060000,0.00060000,0.10090000,0.01855000,0.00000000,-0.00035000
-0.00630000,0.00500000,0.09910000,0.01232000,-0.00539000,-0.00133000
-0.00380000,0.00430000,0.09380000,0.00497000,-0.00637000,-0.00210000
-0.00810000,0.00150000,0.09790000,0.00525000,-0.00175000,0.00119000
-0.00810000,0.00150000,0.09790000,0.00665000,0.00042000,0.00280000
-0.01210000,0.00100000,0.09940000,0.00665000,0.00042000,0.00280000
-0.01140000,0.00210000,0.10430000,0.00693000,-0.00077000,0.00147000
-0.00890000,0.00270000,0.10490000,0.00490000,-0.00196000,-0.00042000
-0.00780000,0.00200000,0.10420000,0.00098000,-0.00364000,-0.00049000
-0.00920000,0.00060000,0.10230000,-0.00224000,-0.00322000,0.00014000
-0.00920000,0.00060000,0.10230000,-0.00210000,-0.00364000,-0.00042000
-0.00960000,-0.00060000,0.09710000,-0.00210000,-0.00364000,-0.00042000
-0.00900000,0.00050000,0.10210000,0.00273000,-0.00154000,-0.00112000
-0.00940000,0.00280000,0.10710000,0.00497000,-0.00119000,-0.00105000
-0.00870000,0.00000000,0.10530000,0.00056000,-0.00392000,-0.00175000
-0.00760000,-0.00120000,0.10090000,-0.00574000,-0.00532000,-0.00217000
-0.00830000,-0.00200000,0.10200000,0.00056000,-0.00224000,-0.00042000
-0.00720000,-0.00060000,0.10090000,-0.00042000,-0.00413000,0.00000000
-0.00720000,-0.00060000,0.10090000,-0.00042000,-0.00413000,0.00000000
-0.00660000,-0.00060000,0.10120000,-0.00028000,-0.00434000,0.00028000
-0.00660000,-0.00060000,0.10120000,-0.00028000,-0.00434000,0.00028000
-0.00790000,-0.00090000,0.10040000,-0.00070000,-0.00364000,0.00105000
-0.01000000,-0.00110000,0.10080000,-0.00042000,-0.00287000,0.00098000
-0.01000000,-0.00110000,0.10080000,-0.00042000,-0.00287000,0.00098000
-0.00990000,-0.00070000,0.10050000,0.00049000,-0.00350000,0.00014000
-0.00780000,-0.00010000,0.10040000,0.00126000,-0.00434000,-0.00049000
-0.00650000,-0.00020000,0.10020000,0.00049000,-0.00406000,-0.00021000
-0.00760000,-0.00080000,0.10170000,-0.00119000,-0.00322000,0.00042000
-0.00760000,-0.00080000,0.10170000,-0.00119000,-0.00322000,0.00042000
-0.00860000,-0.00230000,0.10210000,-0.00224000,-0.00280000,0.00070000
-0.00720000,-0.00370000,0.10200000,-0.00217000,-0.00427000,0.00119000
-0.00560000,-0.00280000,0.10160000,-0.00112000,-0.00427000,0.00091000
-0.00440000,-0.00310000,0.10210000,0.00091000,-0.00294000,0.00021000
-0.00440000,-0.00310000,0.10000000,0.00175000,-0.00308000,0.00238000
-0.00400000,-0.00200000,0.10000000,0.00175000,-0.00308000,0.00238000
0.00080000,0.00370000,0.10240000,0.00252000,-0.00224000,0.00336000
0.00420000,0.00950000,0.09090000,0.00413000,-0.00119000,0.00672000
-0.00340000,-0.00840000,0.06940000,0.01008000,0.00763000,0.01008000
-0.01510000,-0.01500000,0.12870000,0.01694000,0.03388000,0.00938000
-0.01510000,-0.01500000,0.15910000,-0.03290000,0.07119000,0.00266000
-0.05160000,0.00890000,0.15910000,-0.03290000,0.07119000,0.00266000
-0.02450000,0.00790000,0.03270000,-0.07301000,0.02226000,-0.00126000
0.00070000,-0.01380000,0.03950000,-0.00966000,-0.07406000,-0.00343000
0.01500000,-0.01090000,0.12190000,0.01897000,-0.03367000,-0.00840000
-0.00520000,0.00630000,0.07480000,0.01008000,0.03619000,0.01295000
-0.03820000,0.00090000,0.12940000,0.01953000,-0.00518000,0.01925000
-0.03820000,0.00090000,0.12940000,0.01953000,-0.00518000,0.01925000
-0.03170000,-0.01040000,0.12280000,0.00553000,-0.01267000,-0.00658000
-0.01760000,-0.00570000,0.12650000,-0.01596000,-0.03633000,-0.01232000
-0.01350000,-0.00930000,0.09880000,-0.01211000,-0.02170000,-0.00749000
0.00810000,-0.00720000,0.07370000,-0.00924000,-0.03311000,-0.01218000
0.02720000,0.01350000,0.04370000,0.01358000,-0.01442000,-0.00574000
0.02720000,0.01350000,0.04370000,0.01358000,-0.01442000,-0.00574000
0.01050000,0.00590000,0.11710000,0.04942000,0.01953000,0.00763000
-0.02710000,-0.00880000,0.11050000,0.03458000,0.04893000,0.01043000
-0.04120000,-0.00980000,0.11060000,0.00126000,0.00952000,0.00182000
-0.01240000,-0.00790000,0.10260000,-0.01372000,-0.02191000,-0.00826000
0.00840000,-0.00090000,0.10700000,-0.01183000,-0.02478000,-0.00581000
0.00840000,-0.00090000,0.10700000,-0.01183000,-0.02478000,-0.00581000
-0.00070000,-0.00250000,0.10700000,-0.00091000,-0.00637000,0.00021000
-0.01670000,-0.00450000,0.10420000,0.00280000,-0.00035000,0.00273000
-0.01420000,0.00230000,0.09400000,-0.00280000,-0.00924000,-0.00007000
-0.01420000,0.00230000,0.09400000,-0.00056000,-0.01162000,-0.00357000
0.00060000,0.00590000,0.08800000,-0.00056000,-0.01162000,-0.00357000
-0.00070000,0.00190000,0.10590000,0.00791000,-0.00098000,0.00021000
-0.01440000,-0.00100000,0.10730000,0.00490000,0.00378000,0.00476000
-0.01690000,-0.00030000,0.10270000,-0.00245000,-0.00315000,0.00182000
-0.00710000,0.00010000,0.09890000,-0.00343000,-0.00763000,-0.00280000
-0.00170000,0.00020000,0.09840000,0.00098000,-0.00644000,-0.00231000
-0.00170000,0.00020000,0.09840000,0.00098000,-0.00644000,-0.00231000
-0.00600000,0.00110000,0.10160000,0.00539000,-0.00119000,0.00140000
-0.01140000,-0.00090000,0.10870000,0.00350000,0.00021000,0.00231000
-0.01160000,-0.00270000,0.10320000,-0.00392000,-0.00329000,0.00056000
-0.00740000,-0.00160000,0.09780000,-0.00525000,-0.00609000,-0.00105000
-0.00610000,0.00000000,0.09790000,0.00098000,-0.00476000,-0.00070000
-0.00610000,0.00000000,0.09790000,0.00462000,-0.00238000,0.00063000
-0.00870000,-0.00070000,0.10100000,-0.00077000,-0.00399000,0.00035000
-0.00780000,-0.00110000,0.10010000,-0.00210000,-0.00385000,0.00007000
-0.00780000,-0.00110000,0.10010000,-0.00210000,-0.00385000,0.00056000
-0.00710000,-0.00100000,0.10040000,-0.00119000,-0.00350000,0.00056000
-0.00720000,-0.00180000,0.10170000,0.00035000,-0.00308000,0.00084000
-0.00720000,-0.00180000,0.10170000,0.00035000,-0.00308000,0.00084000
-0.00850000,-0.00120000,0.10090000,0.00063000,-0.00329000,0.00119000
-0.00850000,-0.00120000,0.10090000,0.00063000,-0.00329000,0.00119000
-0.00920000,-0.00190000,0.10080000,0.00266000,-0.00259000,0.00014000
-0.00920000,-0.00190000,0.10080000,0.00266000,-0.00294000,0.00000000
-0.00860000,-0.00040000,0.10190000,0.00182000,-0.00294000,0.00000000
-0.00800000,-0.00050000,0.10370000,0.00070000,-0.00350000,-0.00014000
-0.00710000,-0.00140000,0.10280000,-0.00175000,-0.00413000,-0.00021000
-0.00720000,-0.00090000,0.10090000,-0.00259000,-0.00476000,0.00021000
-0.00690000,-0.00190000,0.10070000,-0.00091000,-0.00490000,0.00007000
-0.00480000,-0.00250000,0.10230000,-0.00056000,-0.00462000,0.00042000
-0.00480000,-0.00250000,0.10230000,-0.00056000,-0.00462000,0.00042000
-0.00230000,-0.00070000,0.09680000,-0.00091000,-0.00581000,0.00175000
-0.00050000,0.00270000,0.09400000,0.00336000,-0.00357000,0.00287000
0.00170000,0.00970000,0.08100000,0.00980000,0.00329000,0.00525000
-0.00070000,-0.00690000,0.07590000,0.01764000,0.01435000,0.00714000
-0.00920000,-0.01190000,0.11780000,0.02044000,0.03570000,0.01141000
-0.05240000,0.00630000,0.18070000,-0.01988000,0.07014000,0.00721000
-0.02330000,0.01460000,0.02980000,-0.07140000,0.04627000,-0.00056000
-0.00580000,-0.01410000,0.02700000,-0.00203000,-0.05131000,0.00224000
